SpectraSuite Data File
++++++++++++++++++++++++++++++++++++
Date: Thu Nov 16 13:55:16 EST 2017
User: cheriyan
Dark Spectrum Present: No
Reference Spectrum Present: No
Number of Sampled Component Spectra: 1
Spectrometers: USB2+H05261
Integration Time (usec): 100000 (USB2+H05261)
Spectra Averaged: 1 (USB2+H05261)
Boxcar Smoothing: 1 (USB2+H05261)
Correct for Electrical Dark: No (USB2+H05261)
Strobe/Lamp Enabled: No (USB2+H05261)
Correct for Detector Non-linearity: No (USB2+H05261)
Correct for Stray Light: No (USB2+H05261)
Number of Pixels in Processed Spectrum: 2048
>>>>>Begin Processed Spectral Data<<<<<
0.00	353.42
1.00	353.42
2.00	341.72
3.00	305.05
4.00	288.67
5.00	262.14
6.00	245.76
7.00	214.55
8.00	215.33
9.00	223.13
10.00	220.79
11.00	222.35
12.00	234.05
13.00	250.44
14.00	234.05
15.00	252.00
16.00	239.51
17.00	280.08
18.00	260.58
19.00	272.28
20.00	263.70
21.00	269.94
22.00	305.83
23.00	314.41
24.00	336.26
25.00	304.27
26.00	312.85
27.00	315.97
28.00	340.94
29.00	346.40
30.00	337.82
31.00	348.74
32.00	358.88
33.00	378.39
34.00	404.91
35.00	400.23
36.00	405.69
37.00	390.87
38.00	393.21
39.00	388.53
40.00	378.39
41.00	379.95
42.00	380.73
43.00	402.57
44.00	419.74
45.00	451.72
46.00	442.36
47.00	444.70
48.00	436.90
49.00	426.76
50.00	438.46
51.00	449.38
52.00	472.79
53.00	471.23
54.00	457.96
55.00	441.58
56.00	431.44
57.00	411.15
58.00	418.18
59.00	401.79
60.00	392.43
61.00	383.85
62.00	392.43
63.00	418.18
64.00	424.42
65.00	441.58
66.00	420.52
67.00	422.08
68.00	416.62
69.00	440.02
70.00	440.80
71.00	438.46
72.00	421.30
73.00	411.15
74.00	388.53
75.00	397.89
76.00	411.15
77.00	391.65
78.00	411.93
79.00	401.01
80.00	444.70
81.00	400.23
82.00	404.13
83.00	379.95
84.00	391.65
85.00	366.68
86.00	355.76
87.00	374.49
88.00	404.13
89.00	415.06
90.00	401.01
91.00	401.01
92.00	414.27
93.00	411.15
94.00	406.47
95.00	413.49
96.00	426.76
97.00	418.96
98.00	415.84
99.00	400.23
100.00	397.89
101.00	393.21
102.00	401.79
103.00	433.00
104.00	444.70
105.00	456.40
106.00	425.98
107.00	413.49
108.00	405.69
109.00	407.25
110.00	404.91
111.00	394.77
112.00	398.67
113.00	397.11
114.00	401.01
115.00	411.15
116.00	421.30
117.00	408.81
118.00	398.67
119.00	393.99
120.00	424.42
121.00	426.76
122.00	416.62
123.00	404.91
124.00	416.62
125.00	426.76
126.00	424.42
127.00	426.76
128.00	423.64
129.00	426.76
130.00	382.29
131.00	370.58
132.00	352.64
133.00	395.55
134.00	402.57
135.00	424.42
136.00	398.67
137.00	401.01
138.00	393.99
139.00	397.11
140.00	392.43
141.00	394.77
142.00	417.40
143.00	426.76
144.00	421.30
145.00	439.24
146.00	471.23
147.00	493.85
148.00	454.06
149.00	425.98
150.00	398.67
151.00	408.81
152.00	397.11
153.00	407.25
154.00	409.59
155.00	424.42
156.00	429.88
157.00	429.10
158.00	426.76
159.00	413.49
160.00	423.64
161.00	411.15
162.00	422.86
163.00	394.77
164.00	386.97
165.00	377.61
166.00	401.79
167.00	430.66
168.00	428.32
169.00	436.12
170.00	411.15
171.00	410.37
172.00	393.99
173.00	387.75
174.00	426.76
175.00	420.52
176.00	446.26
177.00	411.93
178.00	429.10
179.00	429.88
180.00	434.56
181.00	443.92
182.00	435.34
183.00	430.66
184.00	416.62
185.00	401.01
186.00	405.69
187.00	404.91
188.00	410.37
189.00	404.91
190.00	394.77
191.00	408.03
192.00	429.88
193.00	446.26
194.00	472.79
195.00	504.78
196.00	534.42
197.00	546.12
198.00	514.14
199.00	488.39
200.00	466.55
201.00	463.43
202.00	432.22
203.00	408.81
204.00	386.19
205.00	422.08
206.00	417.40
207.00	407.25
208.00	383.85
209.00	389.31
210.00	414.27
211.00	411.15
212.00	408.81
213.00	405.69
214.00	404.91
215.00	381.51
216.00	386.97
217.00	390.87
218.00	404.91
219.00	386.19
220.00	388.53
221.00	396.33
222.00	390.09
223.00	379.17
224.00	394.77
225.00	398.67
226.00	422.08
227.00	389.31
228.00	397.89
229.00	383.85
230.00	388.53
231.00	376.05
232.00	394.77
233.00	423.64
234.00	435.34
235.00	430.66
236.00	414.27
237.00	396.33
238.00	373.71
239.00	390.87
240.00	435.34
241.00	450.94
242.00	439.24
243.00	411.15
244.00	409.59
245.00	416.62
246.00	433.78
247.00	436.90
248.00	443.14
249.00	425.20
250.00	431.44
251.00	401.79
252.00	404.13
253.00	393.99
254.00	434.56
255.00	455.62
256.00	482.15
257.00	465.77
258.00	443.14
259.00	418.18
260.00	391.65
261.00	401.01
262.00	418.18
263.00	450.94
264.00	435.34
265.00	442.36
266.00	480.59
267.00	539.88
268.00	548.47
269.00	524.28
270.00	523.50
271.00	544.56
272.00	599.18
273.00	599.96
274.00	599.96
275.00	556.27
276.00	539.88
277.00	528.18
278.00	506.34
279.00	508.68
280.00	483.71
281.00	479.03
282.00	450.16
283.00	436.12
284.00	437.68
285.00	438.46
286.00	447.04
287.00	436.90
288.00	431.44
289.00	433.00
290.00	436.12
291.00	441.58
292.00	411.93
293.00	366.68
294.00	383.85
295.00	402.57
296.00	425.20
297.00	402.57
298.00	393.99
299.00	419.74
300.00	408.81
301.00	412.71
302.00	414.27
303.00	430.66
304.00	410.37
305.00	427.54
306.00	479.81
307.00	564.07
308.00	604.64
309.00	603.86
310.00	585.13
311.00	556.27
312.00	533.64
313.00	498.53
314.00	470.45
315.00	421.30
316.00	408.03
317.00	417.40
318.00	428.32
319.00	445.48
320.00	433.78
321.00	433.00
322.00	425.98
323.00	394.77
324.00	404.91
325.00	423.64
326.00	468.11
327.00	447.82
328.00	421.30
329.00	393.21
330.00	394.77
331.00	403.35
332.00	400.23
333.00	410.37
334.00	407.25
335.00	401.01
336.00	405.69
337.00	416.62
338.00	416.62
339.00	397.89
340.00	385.41
341.00	416.62
342.00	464.99
343.00	462.65
344.00	457.96
345.00	472.79
346.00	535.98
347.00	647.55
348.00	740.39
349.00	787.98
350.00	748.19
351.00	660.81
352.00	595.28
353.00	559.39
354.00	522.72
355.00	502.44
356.00	471.23
357.00	498.53
358.00	482.15
359.00	488.39
360.00	447.82
361.00	453.28
362.00	443.14
363.00	464.21
364.00	445.48
365.00	421.30
366.00	400.23
367.00	397.89
368.00	415.84
369.00	425.98
370.00	426.76
371.00	437.68
372.00	442.36
373.00	464.21
374.00	441.58
375.00	400.23
376.00	384.63
377.00	418.18
378.00	448.60
379.00	436.12
380.00	393.99
381.00	406.47
382.00	424.42
383.00	434.56
384.00	421.30
385.00	408.81
386.00	433.78
387.00	442.36
388.00	458.74
389.00	430.66
390.00	416.62
391.00	411.15
392.00	406.47
393.00	402.57
394.00	405.69
395.00	416.62
396.00	427.54
397.00	445.48
398.00	445.48
399.00	457.18
400.00	442.36
401.00	450.94
402.00	445.48
403.00	461.09
404.00	467.33
405.00	451.72
406.00	418.96
407.00	393.21
408.00	413.49
409.00	418.96
410.00	394.77
411.00	383.85
412.00	390.87
413.00	440.80
414.00	428.32
415.00	433.00
416.00	410.37
417.00	423.64
418.00	418.96
419.00	436.90
420.00	434.56
421.00	433.00
422.00	419.74
423.00	408.03
424.00	420.52
425.00	418.18
426.00	418.18
427.00	394.77
428.00	405.69
429.00	414.27
430.00	442.36
431.00	424.42
432.00	419.74
433.00	386.97
434.00	410.37
435.00	406.47
436.00	422.86
437.00	422.86
438.00	433.78
439.00	438.46
440.00	450.94
441.00	441.58
442.00	457.96
443.00	464.99
444.00	477.47
445.00	460.31
446.00	422.86
447.00	421.30
448.00	411.93
449.00	418.96
450.00	393.21
451.00	406.47
452.00	408.81
453.00	425.98
454.00	416.62
455.00	423.64
456.00	447.82
457.00	445.48
458.00	433.00
459.00	427.54
460.00	433.78
461.00	466.55
462.00	442.36
463.00	434.56
464.00	407.25
465.00	436.90
466.00	429.88
467.00	414.27
468.00	383.07
469.00	399.45
470.00	404.13
471.00	422.08
472.00	433.00
473.00	462.65
474.00	477.47
475.00	462.65
476.00	443.92
477.00	418.18
478.00	424.42
479.00	432.22
480.00	424.42
481.00	414.27
482.00	405.69
483.00	420.52
484.00	415.84
485.00	408.03
486.00	394.77
487.00	391.65
488.00	390.09
489.00	397.89
490.00	397.11
491.00	420.52
492.00	423.64
493.00	439.24
494.00	426.76
495.00	428.32
496.00	449.38
497.00	442.36
498.00	442.36
499.00	436.12
500.00	453.28
501.00	441.58
502.00	410.37
503.00	389.31
504.00	406.47
505.00	432.22
506.00	439.24
507.00	425.20
508.00	421.30
509.00	419.74
510.00	430.66
511.00	443.14
512.00	457.96
513.00	460.31
514.00	420.52
515.00	414.27
516.00	411.15
517.00	433.00
518.00	433.78
519.00	435.34
520.00	417.40
521.00	406.47
522.00	414.27
523.00	439.24
524.00	408.81
525.00	387.75
526.00	360.44
527.00	396.33
528.00	414.27
529.00	414.27
530.00	434.56
531.00	436.12
532.00	463.43
533.00	449.38
534.00	459.53
535.00	482.15
536.00	465.77
537.00	448.60
538.00	430.66
539.00	472.01
540.00	485.27
541.00	462.65
542.00	444.70
543.00	422.86
544.00	416.62
545.00	387.75
546.00	386.19
547.00	433.00
548.00	468.89
549.00	479.03
550.00	452.50
551.00	443.14
552.00	446.26
553.00	443.14
554.00	453.28
555.00	468.89
556.00	479.03
557.00	488.39
558.00	464.99
559.00	454.84
560.00	418.96
561.00	407.25
562.00	400.23
563.00	372.15
564.00	369.80
565.00	362.78
566.00	401.01
567.00	415.84
568.00	439.24
569.00	442.36
570.00	464.21
571.00	467.33
572.00	449.38
573.00	457.96
574.00	450.16
575.00	463.43
576.00	432.22
577.00	416.62
578.00	422.86
579.00	441.58
580.00	445.48
581.00	454.06
582.00	457.96
583.00	460.31
584.00	469.67
585.00	426.76
586.00	398.67
587.00	375.27
588.00	415.06
589.00	434.56
590.00	416.62
591.00	376.83
592.00	353.42
593.00	380.73
594.00	397.11
595.00	435.34
596.00	413.49
597.00	428.32
598.00	423.64
599.00	436.90
600.00	440.02
601.00	457.96
602.00	454.84
603.00	445.48
604.00	403.35
605.00	411.93
606.00	411.93
607.00	430.66
608.00	442.36
609.00	425.20
610.00	436.90
611.00	386.19
612.00	397.89
613.00	351.08
614.00	366.68
615.00	355.76
616.00	411.93
617.00	422.08
618.00	413.49
619.00	380.73
620.00	386.97
621.00	433.00
622.00	458.74
623.00	455.62
624.00	424.42
625.00	408.81
626.00	413.49
627.00	421.30
628.00	428.32
629.00	442.36
630.00	457.96
631.00	445.48
632.00	436.90
633.00	415.84
634.00	415.84
635.00	408.03
636.00	402.57
637.00	415.06
638.00	415.84
639.00	447.82
640.00	433.78
641.00	439.24
642.00	415.84
643.00	422.08
644.00	429.10
645.00	445.48
646.00	448.60
647.00	435.34
648.00	422.08
649.00	415.84
650.00	423.64
651.00	405.69
652.00	440.02
653.00	407.25
654.00	469.67
655.00	464.21
656.00	514.92
657.00	486.83
658.00	454.84
659.00	414.27
660.00	408.03
661.00	429.88
662.00	448.60
663.00	444.70
664.00	416.62
665.00	416.62
666.00	402.57
667.00	429.88
668.00	421.30
669.00	429.88
670.00	416.62
671.00	420.52
672.00	429.10
673.00	429.88
674.00	450.94
675.00	447.04
676.00	450.16
677.00	438.46
678.00	435.34
679.00	443.14
680.00	446.26
681.00	457.96
682.00	459.53
683.00	439.24
684.00	433.78
685.00	430.66
686.00	433.78
687.00	439.24
688.00	418.96
689.00	427.54
690.00	414.27
691.00	426.76
692.00	424.42
693.00	419.74
694.00	433.00
695.00	427.54
696.00	440.02
697.00	413.49
698.00	438.46
699.00	432.22
700.00	439.24
701.00	433.00
702.00	444.70
703.00	443.92
704.00	409.59
705.00	401.79
706.00	393.99
707.00	425.98
708.00	420.52
709.00	437.68
710.00	401.01
711.00	374.49
712.00	379.17
713.00	400.23
714.00	419.74
715.00	404.91
716.00	407.25
717.00	431.44
718.00	486.05
719.00	481.37
720.00	461.09
721.00	412.71
722.00	440.80
723.00	461.87
724.00	493.07
725.00	468.89
726.00	441.58
727.00	428.32
728.00	439.24
729.00	457.18
730.00	462.65
731.00	454.06
732.00	441.58
733.00	458.75
734.00	457.18
735.00	496.97
736.00	498.53
737.00	525.84
738.00	516.48
739.00	487.61
740.00	460.31
741.00	451.72
742.00	427.54
743.00	464.21
744.00	472.79
745.00	489.95
746.00	447.04
747.00	425.20
748.00	438.46
749.00	447.04
750.00	475.13
751.00	482.15
752.00	475.91
753.00	468.89
754.00	440.80
755.00	432.22
756.00	390.87
757.00	415.84
758.00	435.34
759.00	476.69
760.00	471.23
761.00	497.75
762.00	512.58
763.00	488.39
764.00	454.06
765.00	418.18
766.00	433.00
767.00	425.20
768.00	423.64
769.00	404.91
770.00	391.65
771.00	395.55
772.00	412.71
773.00	454.84
774.00	449.38
775.00	457.18
776.00	456.40
777.00	482.93
778.00	506.34
779.00	534.42
780.00	574.99
781.00	581.23
782.00	575.77
783.00	613.22
784.00	612.44
785.00	603.08
786.00	513.36
787.00	478.25
788.00	437.68
789.00	427.54
790.00	429.10
791.00	422.08
792.00	411.15
793.00	419.74
794.00	438.46
795.00	429.10
796.00	432.22
797.00	472.79
798.00	507.12
799.00	515.70
800.00	482.15
801.00	469.67
802.00	459.53
803.00	468.11
804.00	471.23
805.00	469.67
806.00	476.69
807.00	473.57
808.00	485.27
809.00	481.37
810.00	477.47
811.00	469.67
812.00	438.46
813.00	425.20
814.00	406.47
815.00	414.27
816.00	438.46
817.00	461.87
818.00	470.45
819.00	480.59
820.00	478.25
821.00	492.29
822.00	488.39
823.00	488.39
824.00	467.33
825.00	454.84
826.00	446.26
827.00	438.46
828.00	425.98
829.00	433.78
830.00	449.38
831.00	475.13
832.00	470.45
833.00	491.51
834.00	490.73
835.00	479.81
836.00	460.31
837.00	468.11
838.00	479.81
839.00	493.85
840.00	475.13
841.00	481.37
842.00	468.89
843.00	466.55
844.00	471.23
845.00	489.17
846.00	505.56
847.00	473.57
848.00	425.20
849.00	410.37
850.00	412.71
851.00	415.06
852.00	404.13
853.00	398.67
854.00	437.68
855.00	436.12
856.00	436.90
857.00	413.49
858.00	418.96
859.00	430.66
860.00	444.70
861.00	449.38
862.00	444.70
863.00	448.60
864.00	450.94
865.00	462.65
866.00	429.10
867.00	426.76
868.00	408.03
869.00	431.44
870.00	407.25
871.00	413.49
872.00	415.06
873.00	418.18
874.00	452.50
875.00	446.26
876.00	473.57
877.00	452.50
878.00	448.60
879.00	429.10
880.00	410.37
881.00	411.15
882.00	450.94
883.00	476.69
884.00	511.02
885.00	500.87
886.00	491.51
887.00	475.91
888.00	476.69
889.00	492.29
890.00	495.41
891.00	451.72
892.00	433.00
893.00	418.18
894.00	432.22
895.00	441.58
896.00	455.62
897.00	447.04
898.00	432.22
899.00	422.08
900.00	442.36
901.00	463.43
902.00	511.02
903.00	560.17
904.00	656.91
905.00	735.71
906.00	807.48
907.00	812.17
908.00	770.82
909.00	1043.88
910.00	1070.40
911.00	1141.40
912.00	919.05
913.00	908.91
914.00	832.45
915.00	716.20
916.00	618.68
917.00	570.31
918.00	520.38
919.00	494.63
920.00	450.94
921.00	450.94
922.00	450.16
923.00	468.11
924.00	472.01
925.00	462.65
926.00	434.56
927.00	417.40
928.00	401.01
929.00	415.06
930.00	429.10
931.00	452.50
932.00	479.03
933.00	486.05
934.00	463.43
935.00	433.00
936.00	411.93
937.00	413.49
938.00	407.25
939.00	419.74
940.00	434.56
941.00	476.69
942.00	489.17
943.00	643.65
944.00	1031.40
945.00	1931.72
946.00	2910.85
947.00	3655.14
948.00	3675.42
949.00	3183.13
950.00	2385.01
951.00	1635.25
952.00	1083.67
953.00	766.92
954.00	574.21
955.00	486.05
956.00	462.65
957.00	475.91
958.00	466.55
959.00	467.33
960.00	455.62
961.00	470.45
962.00	440.02
963.00	441.58
964.00	417.40
965.00	431.44
966.00	433.00
967.00	462.65
968.00	456.40
969.00	481.37
970.00	469.67
971.00	483.71
972.00	474.35
973.00	464.99
974.00	464.99
975.00	447.04
976.00	468.89
977.00	470.45
978.00	496.97
979.00	496.19
980.00	489.95
981.00	468.11
982.00	464.21
983.00	480.59
984.00	490.73
985.00	479.03
986.00	459.53
987.00	456.40
988.00	477.47
989.00	469.67
990.00	461.09
991.00	434.56
992.00	438.46
993.00	438.46
994.00	443.92
995.00	425.20
996.00	435.34
997.00	433.78
998.00	470.45
999.00	454.84
1000.00	470.45
1001.00	457.18
1002.00	477.47
1003.00	491.51
1004.00	491.51
1005.00	479.03
1006.00	447.04
1007.00	425.20
1008.00	424.42
1009.00	451.72
1010.00	488.39
1011.00	486.05
1012.00	477.47
1013.00	447.82
1014.00	438.46
1015.00	434.56
1016.00	440.02
1017.00	457.18
1018.00	456.40
1019.00	477.47
1020.00	470.45
1021.00	480.59
1022.00	466.55
1023.00	491.51
1024.00	467.33
1025.00	444.70
1026.00	435.34
1027.00	459.53
1028.00	481.37
1029.00	440.02
1030.00	423.64
1031.00	451.72
1032.00	475.13
1033.00	464.21
1034.00	428.32
1035.00	454.06
1036.00	460.31
1037.00	456.40
1038.00	415.84
1039.00	440.80
1040.00	438.46
1041.00	464.99
1042.00	481.37
1043.00	515.70
1044.00	533.64
1045.00	555.49
1046.00	550.03
1047.00	533.64
1048.00	482.93
1049.00	468.11
1050.00	450.94
1051.00	438.46
1052.00	450.94
1053.00	465.77
1054.00	458.74
1055.00	434.56
1056.00	431.44
1057.00	441.58
1058.00	433.78
1059.00	445.48
1060.00	417.40
1061.00	442.36
1062.00	408.03
1063.00	437.68
1064.00	419.74
1065.00	460.31
1066.00	436.90
1067.00	430.66
1068.00	395.55
1069.00	425.20
1070.00	439.24
1071.00	439.24
1072.00	440.80
1073.00	433.00
1074.00	442.36
1075.00	419.74
1076.00	451.72
1077.00	459.53
1078.00	475.91
1079.00	482.15
1080.00	475.13
1081.00	464.21
1082.00	457.96
1083.00	450.94
1084.00	424.42
1085.00	393.21
1086.00	413.49
1087.00	450.94
1088.00	462.65
1089.00	457.18
1090.00	454.84
1091.00	454.06
1092.00	462.65
1093.00	466.55
1094.00	489.17
1095.00	496.19
1096.00	494.63
1097.00	479.03
1098.00	494.63
1099.00	538.32
1100.00	574.99
1101.00	586.69
1102.00	576.55
1103.00	551.59
1104.00	532.86
1105.00	514.92
1106.00	528.96
1107.00	511.80
1108.00	504.00
1109.00	461.87
1110.00	447.04
1111.00	424.42
1112.00	430.66
1113.00	433.78
1114.00	458.75
1115.00	463.43
1116.00	482.15
1117.00	464.99
1118.00	482.93
1119.00	480.59
1120.00	518.04
1121.00	518.04
1122.00	534.42
1123.00	507.12
1124.00	497.75
1125.00	444.70
1126.00	441.58
1127.00	416.62
1128.00	452.50
1129.00	455.62
1130.00	472.79
1131.00	469.67
1132.00	489.17
1133.00	509.46
1134.00	517.26
1135.00	482.15
1136.00	496.97
1137.00	502.43
1138.00	550.81
1139.00	523.50
1140.00	534.42
1141.00	532.86
1142.00	542.22
1143.00	524.28
1144.00	514.14
1145.00	508.68
1146.00	511.02
1147.00	517.26
1148.00	521.16
1149.00	493.85
1150.00	479.81
1151.00	511.80
1152.00	552.37
1153.00	578.11
1154.00	548.47
1155.00	591.38
1156.00	651.45
1157.00	741.17
1158.00	774.72
1159.00	730.25
1160.00	670.17
1161.00	593.72
1162.00	598.40
1163.00	638.97
1164.00	780.18
1165.00	1064.16
1166.00	1399.64
1167.00	1658.66
1168.00	1657.10
1169.00	1514.33
1170.00	1261.55
1171.00	1021.25
1172.00	853.52
1173.00	742.73
1174.00	697.48
1175.00	653.79
1176.00	645.21
1177.00	632.72
1178.00	603.08
1179.00	582.79
1180.00	601.52
1181.00	624.92
1182.00	635.85
1183.00	641.31
1184.00	649.89
1185.00	669.39
1186.00	671.73
1187.00	670.95
1188.00	688.12
1189.00	720.10
1190.00	766.14
1191.00	820.75
1192.00	859.76
1193.00	905.01
1194.00	902.67
1195.00	883.16
1196.00	848.05
1197.00	837.13
1198.00	897.99
1199.00	1012.67
1200.00	1189.77
1201.00	1385.60
1202.00	1482.34
1203.00	1483.90
1204.00	1357.51
1205.00	1292.76
1206.00	1217.08
1207.00	1188.99
1208.00	1165.59
1209.00	1167.15
1210.00	1224.10
1211.00	1245.95
1212.00	1348.15
1213.00	1489.36
1214.00	1700.79
1215.00	1973.85
1216.00	2481.75
1217.00	5746.02
1218.00	21236.46
1219.00	41997.01
1220.00	59941.90
1221.00	65535.00
1222.00	65535.00
1223.00	65535.00
1224.00	65535.00
1225.00	65350.88
1226.00	56289.88
1227.00	40655.11
1228.00	22004.16
1229.00	10775.05
1230.00	5499.48
1231.00	3213.56
1232.00	2257.84
1233.00	1898.95
1234.00	1679.72
1235.00	1629.79
1236.00	2047.19
1237.00	3733.15
1238.00	7016.15
1239.00	11520.12
1240.00	15154.19
1241.00	16306.51
1242.00	14572.18
1243.00	11300.89
1244.00	7731.57
1245.00	4833.21
1246.00	2800.06
1247.00	1767.10
1248.00	1210.84
1249.00	981.46
1250.00	925.29
1251.00	972.10
1252.00	1085.23
1253.00	1192.89
1254.00	1231.90
1255.00	1231.90
1256.00	1166.37
1257.00	1111.75
1258.00	1047.00
1259.00	979.90
1260.00	922.95
1261.00	872.24
1262.00	855.08
1263.00	841.81
1264.00	812.17
1265.00	795.00
1266.00	787.98
1267.00	794.22
1268.00	759.11
1269.00	741.95
1270.00	737.27
1271.00	751.31
1272.00	784.08
1273.00	801.24
1274.00	883.94
1275.00	1228.00
1276.00	2945.17
1277.00	7073.88
1278.00	14322.52
1279.00	22686.81
1280.00	28274.45
1281.00	28675.46
1282.00	24343.13
1283.00	17924.60
1284.00	11649.63
1285.00	6715.00
1286.00	3735.50
1287.00	2115.84
1288.00	1337.23
1289.00	968.98
1290.00	867.56
1291.00	862.10
1292.00	908.91
1293.00	936.99
1294.00	912.81
1295.00	1085.23
1296.00	1723.41
1297.00	2977.94
1298.00	4700.58
1299.00	6135.32
1300.00	6775.85
1301.00	6277.32
1302.00	5137.48
1303.00	3697.27
1304.00	2475.51
1305.00	1598.59
1306.00	1196.79
1307.00	924.51
1308.00	841.81
1309.00	748.19
1310.00	760.67
1311.00	698.26
1312.00	673.29
1313.00	632.72
1314.00	628.82
1315.00	595.28
1316.00	590.60
1317.00	567.19
1318.00	571.09
1319.00	557.83
1320.00	556.27
1321.00	539.10
1322.00	570.31
1323.00	563.29
1324.00	574.21
1325.00	550.81
1326.00	572.65
1327.00	599.18
1328.00	615.56
1329.00	656.13
1330.00	980.68
1331.00	1881.01
1332.00	3515.48
1333.00	5494.80
1334.00	6991.96
1335.00	7362.55
1336.00	6626.84
1337.00	5198.33
1338.00	3701.95
1339.00	2381.10
1340.00	1522.13
1341.00	1031.40
1342.00	777.84
1343.00	674.85
1344.00	625.70
1345.00	642.09
1346.00	643.65
1347.00	651.45
1348.00	634.29
1349.00	658.47
1350.00	674.85
1351.00	720.88
1352.00	709.18
1353.00	698.26
1354.00	681.10
1355.00	724.79
1356.00	798.12
1357.00	900.33
1358.00	1481.56
1359.00	3523.29
1360.00	7783.84
1361.00	14278.83
1362.00	20473.45
1363.00	23979.57
1364.00	22813.98
1365.00	18945.86
1366.00	13520.49
1367.00	8868.29
1368.00	5100.03
1369.00	2970.92
1370.00	1864.63
1371.00	1446.45
1372.00	2154.07
1373.00	5430.82
1374.00	12816.77
1375.00	24229.23
1376.00	35479.40
1377.00	41968.93
1378.00	40737.02
1379.00	34232.68
1380.00	24877.55
1381.00	16113.81
1382.00	9100.78
1383.00	4901.08
1384.00	2754.81
1385.00	1678.94
1386.00	1185.87
1387.00	927.63
1388.00	855.08
1389.00	873.02
1390.00	888.62
1391.00	890.96
1392.00	844.93
1393.00	837.13
1394.00	894.08
1395.00	1037.64
1396.00	1338.01
1397.00	1604.05
1398.00	1827.96
1399.00	1843.56
1400.00	1785.05
1401.00	1681.28
1402.00	2197.76
1403.00	5596.22
1404.00	14776.58
1405.00	30703.93
1406.00	46627.37
1407.00	57156.66
1408.00	58853.55
1409.00	54602.36
1410.00	44839.20
1411.00	31701.78
1412.00	18970.82
1413.00	10016.71
1414.00	5313.80
1415.00	3047.38
1416.00	2491.89
1417.00	3605.99
1418.00	6650.24
1419.00	11246.27
1420.00	15460.80
1421.00	17433.87
1422.00	16259.70
1423.00	13360.56
1424.00	9647.69
1425.00	6367.82
1426.00	3709.75
1427.00	2211.81
1428.00	1416.02
1429.00	1053.24
1430.00	898.77
1431.00	814.51
1432.00	765.36
1433.00	747.41
1434.00	761.45
1435.00	736.49
1436.00	690.46
1437.00	659.25
1438.00	630.38
1439.00	659.25
1440.00	639.75
1441.00	660.03
1442.00	631.94
1443.00	623.36
1444.00	598.40
1445.00	589.03
1446.00	611.66
1447.00	643.65
1448.00	669.39
1449.00	686.56
1450.00	713.86
1451.00	993.17
1452.00	1885.69
1453.00	3713.65
1454.00	6278.88
1455.00	8823.82
1456.00	10172.75
1457.00	9866.14
1458.00	8360.39
1459.00	6302.28
1460.00	4365.10
1461.00	2696.30
1462.00	1648.52
1463.00	1078.99
1464.00	799.68
1465.00	696.70
1466.00	668.61
1467.00	656.13
1468.00	653.79
1469.00	608.54
1470.00	612.44
1471.00	585.91
1472.00	595.28
1473.00	580.45
1474.00	614.78
1475.00	642.09
1476.00	642.87
1477.00	626.48
1478.00	642.87
1479.00	705.28
1480.00	734.93
1481.00	750.53
1482.00	780.96
1483.00	1205.38
1484.00	3092.63
1485.00	7772.14
1486.00	15907.06
1487.00	25716.25
1488.00	33358.10
1489.00	35422.45
1490.00	31892.14
1491.00	25035.15
1492.00	17395.64
1493.00	10725.89
1494.00	5920.78
1495.00	3261.15
1496.00	1925.48
1497.00	1256.87
1498.00	943.24
1499.00	748.97
1500.00	719.32
1501.00	687.34
1502.00	666.27
1503.00	626.48
1504.00	621.02
1505.00	628.82
1506.00	641.31
1507.00	643.65
1508.00	695.92
1509.00	947.92
1510.00	1717.17
1511.00	3270.51
1512.00	5529.91
1513.00	7652.77
1514.00	8731.76
1515.00	8333.09
1516.00	7116.01
1517.00	5455.79
1518.00	3871.25
1519.00	2464.58
1520.00	1566.60
1521.00	1100.05
1522.00	893.30
1523.00	785.64
1524.00	734.15
1525.00	699.04
1526.00	733.37
1527.00	789.54
1528.00	998.63
1529.00	1992.58
1530.00	4581.99
1531.00	9298.17
1532.00	15755.71
1533.00	21247.38
1534.00	23587.14
1535.00	21959.69
1536.00	17960.49
1537.00	13106.22
1538.00	8486.78
1539.00	4932.29
1540.00	2813.32
1541.00	1719.51
1542.00	1205.38
1543.00	921.39
1544.00	795.78
1545.00	734.93
1546.00	706.06
1547.00	705.28
1548.00	695.92
1549.00	699.82
1550.00	680.32
1551.00	694.36
1552.00	696.70
1553.00	699.04
1554.00	693.58
1555.00	711.52
1556.00	744.29
1557.00	754.43
1558.00	798.12
1559.00	840.25
1560.00	969.76
1561.00	1723.41
1562.00	4645.96
1563.00	11101.94
1564.00	21738.90
1565.00	33527.39
1566.00	42050.84
1567.00	43517.58
1568.00	39039.36
1569.00	30799.11
1570.00	21816.13
1571.00	13495.53
1572.00	7653.55
1573.00	4425.95
1574.00	3846.28
1575.00	7537.31
1576.00	17125.70
1577.00	32697.28
1578.00	47547.98
1579.00	56995.95
1580.00	58285.58
1581.00	54243.48
1582.00	45179.36
1583.00	32775.30
1584.00	20258.90
1585.00	11074.63
1586.00	5918.43
1587.00	3246.32
1588.00	1918.46
1589.00	1320.84
1590.00	1019.69
1591.00	901.89
1592.00	831.67
1593.00	793.44
1594.00	753.65
1595.00	686.56
1596.00	664.71
1597.00	634.29
1598.00	641.31
1599.00	655.35
1600.00	657.69
1601.00	644.43
1602.00	616.34
1603.00	615.56
1604.00	617.12
1605.00	606.20
1606.00	597.62
1607.00	591.38
1608.00	589.81
1609.00	610.88
1610.00	629.60
1611.00	617.12
1612.00	557.05
1613.00	550.81
1614.00	560.17
1615.00	602.30
1616.00	585.13
1617.00	596.84
1618.00	574.21
1619.00	558.61
1620.00	535.98
1621.00	563.29
1622.00	594.50
1623.00	565.63
1624.00	562.51
1625.00	554.71
1626.00	573.43
1627.00	571.09
1628.00	592.16
1629.00	616.34
1630.00	631.94
1631.00	599.96
1632.00	603.86
1633.00	603.86
1634.00	611.66
1635.00	614.78
1636.00	596.06
1637.00	624.92
1638.00	625.70
1639.00	630.38
1640.00	641.31
1641.00	654.57
1642.00	659.25
1643.00	677.20
1644.00	774.72
1645.00	1353.61
1646.00	3440.59
1647.00	8077.19
1648.00	16074.02
1649.00	25375.31
1650.00	32773.74
1651.00	34832.63
1652.00	32019.31
1653.00	26068.11
1654.00	19100.33
1655.00	12393.14
1656.00	7140.19
1657.00	3954.73
1658.00	2243.01
1659.00	1404.32
1660.00	973.66
1661.00	817.63
1662.00	775.50
1663.00	874.58
1664.00	1465.18
1665.00	2863.26
1666.00	5324.72
1667.00	8365.07
1668.00	10995.84
1669.00	12063.90
1670.00	11391.39
1671.00	9495.55
1672.00	7200.27
1673.00	4947.11
1674.00	3123.05
1675.00	1920.80
1676.00	1249.07
1677.00	920.61
1678.00	734.15
1679.00	642.87
1680.00	584.35
1681.00	560.17
1682.00	531.30
1683.00	502.43
1684.00	475.91
1685.00	496.97
1686.00	526.62
1687.00	524.28
1688.00	524.28
1689.00	514.92
1690.00	535.98
1691.00	520.38
1692.00	503.22
1693.00	519.60
1694.00	531.30
1695.00	554.71
1696.00	534.42
1697.00	539.88
1698.00	536.76
1699.00	525.06
1700.00	515.70
1701.00	495.41
1702.00	521.94
1703.00	564.07
1704.00	584.35
1705.00	607.76
1706.00	574.99
1707.00	597.62
1708.00	628.04
1709.00	871.46
1710.00	1866.97
1711.00	4054.59
1712.00	7715.97
1713.00	12166.10
1714.00	15702.65
1715.00	17139.74
1716.00	15978.84
1717.00	13436.24
1718.00	10083.81
1719.00	6896.00
1720.00	4255.09
1721.00	2561.33
1722.00	1618.87
1723.00	1096.15
1724.00	816.07
1725.00	644.43
1726.00	579.67
1727.00	573.43
1728.00	536.76
1729.00	538.32
1730.00	523.50
1731.00	534.42
1732.00	518.82
1733.00	511.02
1734.00	536.76
1735.00	535.20
1736.00	533.64
1737.00	509.46
1738.00	498.53
1739.00	493.07
1740.00	496.19
1741.00	524.28
1742.00	532.86
1743.00	518.82
1744.00	479.03
1745.00	487.61
1746.00	506.34
1747.00	531.30
1748.00	525.84
1749.00	542.22
1750.00	544.56
1751.00	567.97
1752.00	577.33
1753.00	589.03
1754.00	600.74
1755.00	594.50
1756.00	603.86
1757.00	584.35
1758.00	601.52
1759.00	627.26
1760.00	642.87
1761.00	627.26
1762.00	638.97
1763.00	696.70
1764.00	830.89
1765.00	1538.51
1766.00	3721.45
1767.00	8089.67
1768.00	15014.54
1769.00	22805.40
1770.00	28851.78
1771.00	30361.43
1772.00	27839.89
1773.00	22629.08
1774.00	16679.44
1775.00	10931.08
1776.00	6497.33
1777.00	3735.49
1778.00	2193.86
1779.00	1416.80
1780.00	1027.50
1781.00	816.07
1782.00	716.20
1783.00	649.89
1784.00	633.50
1785.00	596.84
1786.00	564.85
1787.00	571.87
1788.00	582.01
1789.00	606.98
1790.00	597.62
1791.00	619.46
1792.00	806.70
1793.00	1572.84
1794.00	3506.12
1795.00	6896.00
1796.00	11527.92
1797.00	15978.06
1798.00	18485.55
1799.00	18300.65
1800.00	15926.57
1801.00	12511.72
1802.00	8910.42
1803.00	5717.15
1804.00	3465.55
1805.00	2040.95
1806.00	1316.94
1807.00	894.08
1808.00	728.69
1809.00	619.46
1810.00	589.03
1811.00	542.22
1812.00	508.68
1813.00	543.78
1814.00	533.64
1815.00	557.83
1816.00	523.50
1817.00	523.50
1818.00	507.12
1819.00	511.80
1820.00	546.12
1821.00	568.75
1822.00	646.77
1823.00	674.07
1824.00	698.26
1825.00	653.79
1826.00	626.48
1827.00	592.16
1828.00	567.97
1829.00	549.25
1830.00	519.60
1831.00	476.69
1832.00	461.87
1833.00	448.60
1834.00	455.62
1835.00	434.56
1836.00	467.33
1837.00	451.72
1838.00	461.87
1839.00	424.42
1840.00	449.38
1841.00	429.88
1842.00	461.09
1843.00	472.79
1844.00	481.37
1845.00	452.50
1846.00	417.40
1847.00	450.16
1848.00	450.94
1849.00	472.79
1850.00	430.66
1851.00	436.90
1852.00	454.06
1853.00	479.81
1854.00	471.23
1855.00	450.94
1856.00	440.02
1857.00	465.77
1858.00	468.89
1859.00	479.03
1860.00	468.11
1861.00	454.84
1862.00	437.68
1863.00	433.78
1864.00	444.70
1865.00	445.48
1866.00	447.04
1867.00	447.82
1868.00	425.20
1869.00	415.06
1870.00	413.49
1871.00	457.96
1872.00	493.85
1873.00	499.31
1874.00	479.03
1875.00	457.18
1876.00	439.24
1877.00	445.48
1878.00	429.88
1879.00	449.38
1880.00	445.48
1881.00	464.21
1882.00	447.82
1883.00	465.77
1884.00	459.53
1885.00	474.35
1886.00	483.71
1887.00	475.91
1888.00	487.61
1889.00	472.01
1890.00	467.33
1891.00	455.62
1892.00	464.21
1893.00	462.65
1894.00	450.16
1895.00	454.06
1896.00	470.45
1897.00	462.65
1898.00	449.38
1899.00	466.55
1900.00	481.37
1901.00	472.01
1902.00	454.06
1903.00	453.28
1904.00	460.31
1905.00	461.87
1906.00	528.96
1907.00	565.63
1908.00	621.80
1909.00	619.46
1910.00	645.99
1911.00	624.92
1912.00	574.99
1913.00	545.34
1914.00	512.58
1915.00	526.62
1916.00	481.37
1917.00	462.65
1918.00	443.92
1919.00	458.75
1920.00	464.99
1921.00	477.47
1922.00	489.95
1923.00	506.34
1924.00	493.07
1925.00	486.05
1926.00	482.93
1927.00	488.39
1928.00	478.25
1929.00	481.37
1930.00	481.37
1931.00	489.95
1932.00	492.29
1933.00	484.49
1934.00	482.93
1935.00	504.00
1936.00	514.14
1937.00	507.90
1938.00	495.41
1939.00	505.56
1940.00	532.08
1941.00	507.90
1942.00	488.39
1943.00	475.91
1944.00	494.63
1945.00	540.66
1946.00	609.32
1947.00	977.56
1948.00	2023.78
1949.00	4030.40
1950.00	7093.38
1951.00	10595.61
1952.00	13371.48
1953.00	14395.07
1954.00	13552.48
1955.00	11681.61
1956.00	9256.04
1957.00	6860.89
1958.00	4706.04
1959.00	3184.69
1960.00	2101.80
1961.00	1415.24
1962.00	999.41
1963.00	782.52
1964.00	665.49
1965.00	597.62
1966.00	557.05
1967.00	525.84
1968.00	480.59
1969.00	476.69
1970.00	466.55
1971.00	472.01
1972.00	479.81
1973.00	521.16
1974.00	561.73
1975.00	618.68
1976.00	716.20
1977.00	882.38
1978.00	1086.01
1979.00	1246.73
1980.00	1306.02
1981.00	1246.73
1982.00	1111.75
1983.00	964.30
1984.00	828.55
1985.00	712.30
1986.00	613.22
1987.00	557.83
1988.00	510.24
1989.00	491.51
1990.00	481.37
1991.00	486.05
1992.00	491.51
1993.00	487.61
1994.00	500.09
1995.00	496.97
1996.00	464.99
1997.00	454.06
1998.00	471.23
1999.00	487.61
2000.00	516.48
2001.00	511.02
2002.00	544.56
2003.00	524.28
2004.00	507.12
2005.00	470.45
2006.00	464.21
2007.00	452.50
2008.00	489.17
2009.00	504.78
2010.00	527.40
2011.00	503.22
2012.00	517.26
2013.00	540.66
2014.00	558.61
2015.00	565.63
2016.00	550.03
2017.00	543.78
2018.00	560.17
2019.00	635.07
2020.00	770.04
2021.00	922.95
2022.00	1141.40
2023.00	1398.86
2024.00	1947.33
2025.00	3495.20
2026.00	6726.70
2027.00	11847.79
2028.00	18641.59
2029.00	25039.83
2030.00	29490.75
2031.00	30124.26
2032.00	28044.30
2033.00	24022.48
2034.00	19063.66
2035.00	14038.53
2036.00	9513.50
2037.00	6255.47
2038.00	3893.09
2039.00	2455.22
2040.00	1590.00
2041.00	1153.88
2042.00	917.49
2043.00	790.32
2044.00	706.84
2045.00	656.91
2046.00	656.13
2047.00	685.78
>>>>>End Processed Spectral Data<<<<<
