SpectraSuite Data File
++++++++++++++++++++++++++++++++++++
Date: Thu Nov 16 13:55:13 EST 2017
User: cheriyan
Dark Spectrum Present: No
Reference Spectrum Present: No
Number of Sampled Component Spectra: 1
Spectrometers: USB2+H05261
Integration Time (usec): 100000 (USB2+H05261)
Spectra Averaged: 1 (USB2+H05261)
Boxcar Smoothing: 1 (USB2+H05261)
Correct for Electrical Dark: No (USB2+H05261)
Strobe/Lamp Enabled: No (USB2+H05261)
Correct for Detector Non-linearity: No (USB2+H05261)
Correct for Stray Light: No (USB2+H05261)
Number of Pixels in Processed Spectrum: 2048
>>>>>Begin Processed Spectral Data<<<<<
0.00	355.76
1.00	355.76
2.00	307.39
3.00	260.58
4.00	239.51
5.00	243.42
6.00	259.02
7.00	248.88
8.00	280.08
9.00	266.82
10.00	283.99
11.00	258.24
12.00	254.34
13.00	235.61
14.00	244.98
15.00	241.86
16.00	255.12
17.00	258.24
18.00	291.01
19.00	283.20
20.00	296.47
21.00	302.71
22.00	317.53
23.00	308.17
24.00	308.95
25.00	305.05
26.00	305.83
27.00	326.11
28.00	320.65
29.00	365.90
30.00	371.36
31.00	387.75
32.00	389.31
33.00	385.41
34.00	421.30
35.00	405.69
36.00	401.01
37.00	397.11
38.00	408.03
39.00	421.30
40.00	424.42
41.00	436.12
42.00	430.66
43.00	431.44
44.00	399.45
45.00	398.67
46.00	392.43
47.00	405.69
48.00	431.44
49.00	431.44
50.00	462.65
51.00	439.24
52.00	447.04
53.00	427.54
54.00	445.48
55.00	422.86
56.00	407.25
57.00	406.47
58.00	413.49
59.00	447.04
60.00	411.93
61.00	424.42
62.00	421.30
63.00	420.52
64.00	399.45
65.00	379.95
66.00	425.98
67.00	431.44
68.00	438.46
69.00	420.52
70.00	415.84
71.00	399.45
72.00	390.09
73.00	389.31
74.00	376.83
75.00	376.83
76.00	404.13
77.00	415.84
78.00	418.96
79.00	407.25
80.00	404.13
81.00	434.56
82.00	425.20
83.00	423.64
84.00	386.97
85.00	397.89
86.00	397.11
87.00	415.84
88.00	427.54
89.00	439.24
90.00	442.36
91.00	415.84
92.00	404.91
93.00	402.57
94.00	411.93
95.00	419.74
96.00	429.10
97.00	416.62
98.00	435.34
99.00	409.59
100.00	422.86
101.00	419.74
102.00	415.06
103.00	410.37
104.00	386.97
105.00	381.51
106.00	364.34
107.00	376.05
108.00	386.97
109.00	412.71
110.00	422.86
111.00	433.00
112.00	426.76
113.00	429.88
114.00	412.71
115.00	411.93
116.00	397.89
117.00	406.47
118.00	381.51
119.00	368.24
120.00	358.10
121.00	393.21
122.00	425.20
123.00	439.24
124.00	424.42
125.00	393.21
126.00	377.61
127.00	378.39
128.00	394.77
129.00	419.74
130.00	422.08
131.00	419.74
132.00	421.30
133.00	417.40
134.00	406.47
135.00	379.17
136.00	385.41
137.00	397.89
138.00	424.42
139.00	418.96
140.00	402.57
141.00	390.09
142.00	410.37
143.00	419.74
144.00	439.24
145.00	467.33
146.00	526.62
147.00	550.81
148.00	512.58
149.00	463.43
150.00	419.74
151.00	428.32
152.00	431.44
153.00	443.14
154.00	447.82
155.00	447.82
156.00	433.00
157.00	404.13
158.00	402.57
159.00	413.49
160.00	435.34
161.00	441.58
162.00	442.36
163.00	415.84
164.00	393.99
165.00	376.83
166.00	387.75
167.00	386.97
168.00	393.21
169.00	410.37
170.00	425.20
171.00	418.96
172.00	429.10
173.00	431.44
174.00	413.49
175.00	398.67
176.00	400.23
177.00	415.06
178.00	418.18
179.00	379.17
180.00	380.73
181.00	361.22
182.00	399.45
183.00	420.52
184.00	415.06
185.00	389.31
186.00	368.24
187.00	362.78
188.00	379.95
189.00	402.57
190.00	436.90
191.00	431.44
192.00	409.59
193.00	408.81
194.00	432.22
195.00	479.03
196.00	502.43
197.00	518.82
198.00	496.97
199.00	450.16
200.00	444.70
201.00	444.70
202.00	431.44
203.00	408.03
204.00	396.33
205.00	420.52
206.00	400.23
207.00	393.99
208.00	400.23
209.00	430.66
210.00	451.72
211.00	475.13
212.00	437.68
213.00	393.21
214.00	355.76
215.00	397.89
216.00	416.62
217.00	427.54
218.00	429.10
219.00	440.80
220.00	436.12
221.00	411.93
222.00	427.54
223.00	442.36
224.00	443.92
225.00	429.10
226.00	425.20
227.00	441.58
228.00	450.16
229.00	430.66
230.00	418.18
231.00	379.95
232.00	397.11
233.00	400.23
234.00	434.56
235.00	452.50
236.00	440.80
237.00	415.84
238.00	375.27
239.00	388.53
240.00	394.77
241.00	399.45
242.00	404.13
243.00	419.74
244.00	422.08
245.00	420.52
246.00	420.52
247.00	423.64
248.00	410.37
249.00	406.47
250.00	403.35
251.00	411.15
252.00	402.57
253.00	418.18
254.00	445.48
255.00	467.33
256.00	475.13
257.00	452.50
258.00	435.34
259.00	433.00
260.00	436.90
261.00	441.58
262.00	432.22
263.00	440.80
264.00	433.78
265.00	429.88
266.00	452.50
267.00	514.92
268.00	561.73
269.00	543.78
270.00	537.54
271.00	544.56
272.00	602.30
273.00	634.29
274.00	624.14
275.00	603.08
276.00	582.79
277.00	572.65
278.00	557.05
279.00	532.86
280.00	535.98
281.00	461.09
282.00	415.06
283.00	377.61
284.00	395.55
285.00	383.07
286.00	381.51
287.00	395.55
288.00	412.71
289.00	400.23
290.00	380.73
291.00	386.97
292.00	386.19
293.00	420.52
294.00	408.81
295.00	414.27
296.00	414.27
297.00	427.54
298.00	429.10
299.00	418.18
300.00	411.93
301.00	403.35
302.00	394.77
303.00	395.55
304.00	416.62
305.00	426.76
306.00	466.55
307.00	527.40
308.00	603.86
309.00	634.29
310.00	636.63
311.00	605.42
312.00	557.83
313.00	520.38
314.00	457.18
315.00	461.09
316.00	437.68
317.00	447.82
318.00	432.22
319.00	435.34
320.00	421.30
321.00	394.77
322.00	389.31
323.00	398.67
324.00	422.86
325.00	390.09
326.00	386.97
327.00	377.61
328.00	397.11
329.00	393.21
330.00	382.29
331.00	408.03
332.00	424.42
333.00	451.72
334.00	444.70
335.00	422.08
336.00	408.03
337.00	416.62
338.00	434.56
339.00	436.90
340.00	451.72
341.00	447.82
342.00	436.90
343.00	408.81
344.00	461.09
345.00	486.83
346.00	547.69
347.00	614.78
348.00	716.20
349.00	764.57
350.00	743.51
351.00	665.49
352.00	597.62
353.00	564.07
354.00	566.41
355.00	550.81
356.00	518.82
357.00	467.33
358.00	418.18
359.00	378.39
360.00	410.37
361.00	431.44
362.00	447.82
363.00	430.66
364.00	429.10
365.00	408.81
366.00	391.65
367.00	408.03
368.00	456.40
369.00	464.99
370.00	472.01
371.00	433.00
372.00	424.42
373.00	385.41
374.00	363.56
375.00	364.34
376.00	368.24
377.00	382.29
378.00	385.41
379.00	398.67
380.00	421.30
381.00	439.24
382.00	453.28
383.00	453.28
384.00	432.22
385.00	424.42
386.00	413.49
387.00	417.40
388.00	422.86
389.00	439.24
390.00	450.16
391.00	442.36
392.00	419.74
393.00	404.91
394.00	399.45
395.00	399.45
396.00	430.66
397.00	450.94
398.00	466.55
399.00	455.62
400.00	445.48
401.00	457.18
402.00	447.82
403.00	450.16
404.00	440.80
405.00	439.24
406.00	431.44
407.00	433.00
408.00	427.54
409.00	435.34
410.00	428.32
411.00	447.04
412.00	430.66
413.00	411.93
414.00	392.43
415.00	385.41
416.00	397.11
417.00	384.63
418.00	397.89
419.00	386.97
420.00	406.47
421.00	402.57
422.00	414.27
423.00	410.37
424.00	417.40
425.00	417.40
426.00	436.90
427.00	436.90
428.00	449.38
429.00	422.86
430.00	452.50
431.00	426.76
432.00	422.08
433.00	413.49
434.00	449.38
435.00	433.00
436.00	391.65
437.00	399.45
438.00	422.86
439.00	427.54
440.00	394.77
441.00	440.02
442.00	452.50
443.00	475.91
444.00	444.70
445.00	444.70
446.00	416.62
447.00	425.98
448.00	420.52
449.00	456.40
450.00	411.15
451.00	392.43
452.00	372.93
453.00	421.30
454.00	445.48
455.00	448.60
456.00	440.80
457.00	429.10
458.00	421.30
459.00	421.30
460.00	448.60
461.00	454.06
462.00	453.28
463.00	435.34
464.00	416.62
465.00	393.99
466.00	382.29
467.00	354.20
468.00	383.85
469.00	426.76
470.00	464.99
471.00	464.99
472.00	421.30
473.00	418.18
474.00	374.49
475.00	390.09
476.00	402.57
477.00	392.43
478.00	403.35
479.00	398.67
480.00	450.16
481.00	427.54
482.00	420.52
483.00	395.55
484.00	415.06
485.00	430.66
486.00	439.24
487.00	415.06
488.00	411.93
489.00	407.25
490.00	421.30
491.00	409.59
492.00	398.67
493.00	418.18
494.00	450.94
495.00	478.25
496.00	463.43
497.00	457.18
498.00	447.82
499.00	438.46
500.00	434.56
501.00	423.64
502.00	422.86
503.00	411.15
504.00	437.68
505.00	462.65
506.00	465.77
507.00	450.94
508.00	422.86
509.00	386.19
510.00	390.87
511.00	408.03
512.00	433.78
513.00	430.66
514.00	416.62
515.00	422.08
516.00	408.81
517.00	408.81
518.00	429.10
519.00	433.78
520.00	434.56
521.00	399.45
522.00	420.52
523.00	433.00
524.00	440.80
525.00	425.98
526.00	409.59
527.00	423.64
528.00	417.40
529.00	410.37
530.00	408.03
531.00	422.08
532.00	450.16
533.00	433.78
534.00	412.71
535.00	416.62
536.00	434.56
537.00	451.72
538.00	432.22
539.00	436.12
540.00	422.08
541.00	417.40
542.00	376.05
543.00	387.75
544.00	392.43
545.00	418.18
546.00	402.57
547.00	438.46
548.00	466.55
549.00	492.29
550.00	457.96
551.00	443.14
552.00	446.26
553.00	450.16
554.00	442.36
555.00	433.78
556.00	440.80
557.00	466.55
558.00	454.06
559.00	463.43
560.00	399.45
561.00	401.01
562.00	371.36
563.00	402.57
564.00	441.58
565.00	435.34
566.00	428.32
567.00	362.78
568.00	370.58
569.00	342.50
570.00	390.87
571.00	426.76
572.00	447.04
573.00	441.58
574.00	447.04
575.00	465.77
576.00	454.06
577.00	393.99
578.00	363.56
579.00	354.20
580.00	411.93
581.00	458.74
582.00	450.16
583.00	408.81
584.00	400.23
585.00	433.00
586.00	419.74
587.00	391.65
588.00	382.29
589.00	403.35
590.00	415.06
591.00	401.79
592.00	426.76
593.00	421.30
594.00	431.44
595.00	409.59
596.00	421.30
597.00	433.00
598.00	445.48
599.00	438.46
600.00	430.66
601.00	440.80
602.00	411.93
603.00	397.89
604.00	372.93
605.00	416.62
606.00	404.91
607.00	418.96
608.00	404.13
609.00	395.55
610.00	406.47
611.00	405.69
612.00	429.10
613.00	414.27
614.00	415.06
615.00	411.93
616.00	401.01
617.00	389.31
618.00	372.15
619.00	363.56
620.00	395.55
621.00	429.88
622.00	471.23
623.00	471.23
624.00	465.77
625.00	424.42
626.00	422.08
627.00	403.35
628.00	433.78
629.00	416.62
630.00	397.89
631.00	372.93
632.00	391.65
633.00	432.22
634.00	438.46
635.00	399.45
636.00	400.23
637.00	383.07
638.00	427.54
639.00	433.00
640.00	442.36
641.00	429.10
642.00	434.56
643.00	436.90
644.00	427.54
645.00	408.81
646.00	415.06
647.00	423.64
648.00	424.42
649.00	437.68
650.00	450.16
651.00	467.33
652.00	468.89
653.00	450.94
654.00	484.49
655.00	497.75
656.00	507.90
657.00	447.04
658.00	426.76
659.00	420.52
660.00	436.12
661.00	408.03
662.00	425.20
663.00	404.13
664.00	435.34
665.00	434.56
666.00	425.98
667.00	426.76
668.00	401.01
669.00	423.64
670.00	423.64
671.00	410.37
672.00	407.25
673.00	388.53
674.00	393.21
675.00	392.43
676.00	407.25
677.00	408.03
678.00	412.71
679.00	406.47
680.00	427.54
681.00	425.98
682.00	436.12
683.00	427.54
684.00	440.02
685.00	433.78
686.00	445.48
687.00	428.32
688.00	411.93
689.00	402.57
690.00	384.63
691.00	415.06
692.00	425.20
693.00	457.18
694.00	431.44
695.00	412.71
696.00	397.11
697.00	418.96
698.00	439.24
699.00	437.68
700.00	437.68
701.00	428.32
702.00	442.36
703.00	436.90
704.00	428.32
705.00	436.90
706.00	442.36
707.00	443.92
708.00	422.86
709.00	410.37
710.00	428.32
711.00	441.58
712.00	462.65
713.00	469.67
714.00	464.21
715.00	470.45
716.00	461.87
717.00	471.23
718.00	488.39
719.00	469.67
720.00	478.25
721.00	433.78
722.00	443.92
723.00	440.02
724.00	407.25
725.00	427.54
726.00	415.06
727.00	464.21
728.00	430.66
729.00	445.48
730.00	436.12
731.00	475.13
732.00	435.34
733.00	436.12
734.00	436.90
735.00	511.80
736.00	534.42
737.00	520.38
738.00	482.15
739.00	484.49
740.00	460.31
741.00	447.82
742.00	428.32
743.00	461.87
744.00	468.89
745.00	452.50
746.00	446.26
747.00	450.94
748.00	471.23
749.00	458.75
750.00	481.37
751.00	470.45
752.00	460.31
753.00	416.62
754.00	395.55
755.00	405.69
756.00	444.70
757.00	466.55
758.00	456.40
759.00	434.56
760.00	434.56
761.00	447.82
762.00	451.72
763.00	433.78
764.00	440.80
765.00	452.50
766.00	443.92
767.00	432.22
768.00	399.45
769.00	429.10
770.00	398.67
771.00	390.09
772.00	399.45
773.00	427.54
774.00	428.32
775.00	444.70
776.00	464.21
777.00	490.73
778.00	461.09
779.00	473.57
780.00	511.02
781.00	552.37
782.00	555.49
783.00	621.80
784.00	600.74
785.00	585.13
786.00	472.01
787.00	448.60
788.00	423.64
789.00	428.32
790.00	425.98
791.00	433.78
792.00	422.08
793.00	422.86
794.00	432.22
795.00	440.02
796.00	466.55
797.00	486.05
798.00	514.14
799.00	486.83
800.00	485.27
801.00	466.55
802.00	487.61
803.00	443.14
804.00	418.18
805.00	410.37
806.00	421.30
807.00	420.52
808.00	419.74
809.00	440.02
810.00	453.28
811.00	450.16
812.00	447.04
813.00	452.50
814.00	425.20
815.00	414.27
816.00	401.79
817.00	418.18
818.00	426.76
819.00	425.20
820.00	434.56
821.00	466.55
822.00	521.94
823.00	538.32
824.00	515.70
825.00	482.93
826.00	466.55
827.00	464.21
828.00	453.28
829.00	464.21
830.00	464.99
831.00	466.55
832.00	480.59
833.00	486.05
834.00	505.56
835.00	474.35
836.00	461.09
837.00	463.43
838.00	455.62
839.00	456.40
840.00	442.36
841.00	433.78
842.00	419.74
843.00	425.20
844.00	463.43
845.00	434.56
846.00	411.93
847.00	413.49
848.00	447.82
849.00	467.33
850.00	425.98
851.00	436.90
852.00	418.18
853.00	419.74
854.00	403.35
855.00	386.19
856.00	395.55
857.00	404.91
858.00	445.48
859.00	453.28
860.00	443.14
861.00	453.28
862.00	454.84
863.00	433.78
864.00	399.45
865.00	389.31
866.00	429.10
867.00	416.62
868.00	419.74
869.00	408.03
870.00	426.76
871.00	419.74
872.00	395.55
873.00	399.45
874.00	424.42
875.00	440.80
876.00	424.42
877.00	402.57
878.00	415.06
879.00	423.64
880.00	442.36
881.00	427.54
882.00	458.75
883.00	472.01
884.00	461.87
885.00	434.56
886.00	415.06
887.00	455.62
888.00	466.55
889.00	482.15
890.00	461.09
891.00	450.16
892.00	416.62
893.00	397.89
894.00	402.57
895.00	401.79
896.00	433.78
897.00	427.54
898.00	427.54
899.00	425.98
900.00	423.64
901.00	452.50
902.00	468.11
903.00	562.51
904.00	663.93
905.00	739.61
906.00	755.21
907.00	738.83
908.00	726.35
909.00	1015.79
910.00	1040.76
911.00	1092.25
912.00	848.83
913.00	848.05
914.00	808.26
915.00	753.65
916.00	692.02
917.00	642.87
918.00	542.22
919.00	472.79
920.00	423.64
921.00	433.78
922.00	441.58
923.00	432.22
924.00	450.16
925.00	467.33
926.00	468.89
927.00	438.46
928.00	447.82
929.00	467.33
930.00	462.65
931.00	435.34
932.00	433.78
933.00	454.06
934.00	456.40
935.00	457.18
936.00	464.99
937.00	493.07
938.00	525.84
939.00	507.90
940.00	452.50
941.00	413.49
942.00	443.14
943.00	635.07
944.00	1050.90
945.00	1881.01
946.00	2865.60
947.00	3652.02
948.00	3731.59
949.00	3251.78
950.00	2422.45
951.00	1693.77
952.00	1093.81
953.00	738.05
954.00	550.03
955.00	493.85
956.00	472.01
957.00	470.45
958.00	468.89
959.00	471.23
960.00	470.45
961.00	447.04
962.00	447.82
963.00	447.04
964.00	474.35
965.00	485.27
966.00	488.39
967.00	468.11
968.00	449.38
969.00	436.90
970.00	440.02
971.00	433.78
972.00	443.14
973.00	436.12
974.00	457.96
975.00	434.56
976.00	457.96
977.00	433.78
978.00	455.62
979.00	440.80
980.00	446.26
981.00	443.92
982.00	428.32
983.00	415.84
984.00	372.15
985.00	393.21
986.00	398.67
987.00	419.74
988.00	409.59
989.00	423.64
990.00	420.52
991.00	421.30
992.00	411.15
993.00	465.77
994.00	466.55
995.00	481.37
996.00	475.91
997.00	482.93
998.00	472.79
999.00	434.56
1000.00	416.62
1001.00	423.64
1002.00	439.24
1003.00	462.65
1004.00	456.40
1005.00	456.40
1006.00	464.21
1007.00	464.99
1008.00	443.92
1009.00	428.32
1010.00	451.72
1011.00	456.40
1012.00	450.16
1013.00	391.65
1014.00	383.07
1015.00	396.33
1016.00	433.78
1017.00	455.62
1018.00	452.50
1019.00	440.02
1020.00	432.22
1021.00	432.22
1022.00	445.48
1023.00	429.88
1024.00	413.49
1025.00	426.76
1026.00	439.24
1027.00	457.18
1028.00	428.32
1029.00	444.70
1030.00	449.38
1031.00	465.77
1032.00	445.48
1033.00	432.22
1034.00	434.56
1035.00	433.00
1036.00	444.70
1037.00	438.46
1038.00	445.48
1039.00	456.40
1040.00	481.37
1041.00	496.19
1042.00	499.31
1043.00	487.61
1044.00	501.65
1045.00	534.42
1046.00	536.76
1047.00	501.65
1048.00	435.34
1049.00	445.48
1050.00	444.70
1051.00	486.83
1052.00	473.57
1053.00	491.51
1054.00	468.11
1055.00	470.45
1056.00	466.55
1057.00	465.77
1058.00	440.02
1059.00	450.94
1060.00	429.88
1061.00	442.36
1062.00	426.76
1063.00	464.99
1064.00	468.11
1065.00	466.55
1066.00	421.30
1067.00	405.69
1068.00	394.77
1069.00	401.79
1070.00	401.79
1071.00	388.53
1072.00	410.37
1073.00	424.42
1074.00	444.70
1075.00	445.48
1076.00	449.38
1077.00	457.96
1078.00	441.58
1079.00	438.46
1080.00	444.70
1081.00	461.87
1082.00	447.82
1083.00	424.42
1084.00	423.64
1085.00	426.76
1086.00	468.11
1087.00	457.18
1088.00	468.89
1089.00	442.36
1090.00	429.88
1091.00	404.91
1092.00	399.45
1093.00	416.62
1094.00	422.86
1095.00	436.90
1096.00	425.98
1097.00	461.09
1098.00	492.29
1099.00	527.40
1100.00	567.19
1101.00	606.20
1102.00	621.02
1103.00	590.60
1104.00	536.76
1105.00	499.31
1106.00	472.01
1107.00	468.11
1108.00	468.89
1109.00	476.69
1110.00	452.50
1111.00	430.66
1112.00	413.49
1113.00	418.96
1114.00	424.42
1115.00	450.94
1116.00	457.96
1117.00	457.18
1118.00	436.90
1119.00	422.08
1120.00	465.77
1121.00	478.25
1122.00	514.92
1123.00	515.70
1124.00	517.26
1125.00	481.37
1126.00	422.86
1127.00	415.06
1128.00	425.20
1129.00	456.40
1130.00	461.09
1131.00	471.23
1132.00	461.09
1133.00	456.40
1134.00	429.10
1135.00	429.10
1136.00	445.48
1137.00	472.01
1138.00	514.14
1139.00	534.42
1140.00	546.91
1141.00	524.28
1142.00	492.29
1143.00	451.72
1144.00	423.64
1145.00	436.12
1146.00	468.89
1147.00	508.68
1148.00	511.80
1149.00	501.65
1150.00	511.80
1151.00	514.92
1152.00	554.71
1153.00	549.25
1154.00	571.87
1155.00	588.25
1156.00	667.05
1157.00	704.50
1158.00	722.45
1159.00	686.56
1160.00	647.55
1161.00	585.13
1162.00	558.61
1163.00	607.76
1164.00	795.00
1165.00	1073.53
1166.00	1402.76
1167.00	1640.72
1168.00	1695.33
1169.00	1544.75
1170.00	1263.89
1171.00	996.29
1172.00	809.83
1173.00	723.23
1174.00	632.72
1175.00	582.79
1176.00	565.63
1177.00	607.76
1178.00	624.92
1179.00	596.06
1180.00	571.87
1181.00	603.86
1182.00	619.46
1183.00	656.91
1184.00	636.63
1185.00	614.00
1186.00	611.66
1187.00	588.25
1188.00	642.87
1189.00	674.85
1190.00	780.18
1191.00	871.46
1192.00	905.79
1193.00	908.91
1194.00	883.16
1195.00	874.58
1196.00	850.39
1197.00	851.95
1198.00	884.72
1199.00	999.41
1200.00	1195.23
1201.00	1408.22
1202.00	1499.50
1203.00	1484.68
1204.00	1396.52
1205.00	1314.60
1206.00	1190.55
1207.00	1110.97
1208.00	1098.49
1209.00	1114.10
1210.00	1192.89
1211.00	1226.44
1212.00	1348.15
1213.00	1474.54
1214.00	1704.69
1215.00	1979.31
1216.00	2498.91
1217.00	5690.62
1218.00	21016.45
1219.00	41778.56
1220.00	59779.62
1221.00	65535.00
1222.00	65535.00
1223.00	65535.00
1224.00	65535.00
1225.00	65370.38
1226.00	56280.52
1227.00	40612.98
1228.00	22001.04
1229.00	10764.12
1230.00	5534.59
1231.00	3194.05
1232.00	2255.50
1233.00	1858.39
1234.00	1640.72
1235.00	1607.17
1236.00	2080.74
1237.00	3802.59
1238.00	7110.55
1239.00	11462.38
1240.00	15092.55
1241.00	16228.49
1242.00	14584.66
1243.00	11243.15
1244.00	7672.28
1245.00	4765.33
1246.00	2770.41
1247.00	1715.61
1248.00	1202.26
1249.00	970.54
1250.00	941.68
1251.00	947.92
1252.00	1060.26
1253.00	1153.10
1254.00	1262.33
1255.00	1224.88
1256.00	1168.71
1257.00	1093.81
1258.00	1032.96
1259.00	951.04
1260.00	915.93
1261.00	909.69
1262.00	920.61
1263.00	894.86
1264.00	866.78
1265.00	812.17
1266.00	775.50
1267.00	763.79
1268.00	755.21
1269.00	766.14
1270.00	745.85
1271.00	759.11
1272.00	784.86
1273.00	867.56
1274.00	926.07
1275.00	1287.29
1276.00	3013.05
1277.00	7236.16
1278.00	14658.78
1279.00	22828.03
1280.00	28426.59
1281.00	28518.65
1282.00	24385.26
1283.00	17919.14
1284.00	11758.85
1285.00	6740.74
1286.00	3692.59
1287.00	2089.32
1288.00	1326.30
1289.00	1006.43
1290.00	892.52
1291.00	877.70
1292.00	872.24
1293.00	868.34
1294.00	897.99
1295.00	1061.82
1296.00	1678.94
1297.00	2943.61
1298.00	4693.55
1299.00	6145.47
1300.00	6719.68
1301.00	6234.41
1302.00	5068.04
1303.00	3664.50
1304.00	2462.24
1305.00	1639.94
1306.00	1196.01
1307.00	970.54
1308.00	868.34
1309.00	843.37
1310.00	791.10
1311.00	758.33
1312.00	688.12
1313.00	667.05
1314.00	610.10
1315.00	567.19
1316.00	546.12
1317.00	577.33
1318.00	588.25
1319.00	585.91
1320.00	552.37
1321.00	550.03
1322.00	534.42
1323.00	545.34
1324.00	556.27
1325.00	588.25
1326.00	568.75
1327.00	565.63
1328.00	555.49
1329.00	640.53
1330.00	984.59
1331.00	1901.30
1332.00	3517.83
1333.00	5521.32
1334.00	7041.11
1335.00	7386.73
1336.00	6602.65
1337.00	5217.83
1338.00	3726.13
1339.00	2440.40
1340.00	1509.65
1341.00	1043.88
1342.00	827.77
1343.00	724.01
1344.00	699.04
1345.00	681.10
1346.00	659.25
1347.00	612.44
1348.00	590.60
1349.00	599.96
1350.00	631.94
1351.00	653.01
1352.00	670.95
1353.00	691.24
1354.00	709.18
1355.00	746.63
1356.00	791.10
1357.00	880.04
1358.00	1429.29
1359.00	3447.61
1360.00	7712.85
1361.00	14184.43
1362.00	20424.29
1363.00	23857.08
1364.00	22760.93
1365.00	18828.83
1366.00	13473.68
1367.00	8816.02
1368.00	5080.52
1369.00	2952.20
1370.00	1834.98
1371.00	1453.47
1372.00	2161.09
1373.00	5478.41
1374.00	12719.25
1375.00	24152.77
1376.00	35503.59
1377.00	42011.84
1378.00	40681.63
1379.00	34056.36
1380.00	24685.63
1381.00	15889.12
1382.00	8833.18
1383.00	4754.41
1384.00	2669.77
1385.00	1645.40
1386.00	1143.74
1387.00	939.34
1388.00	835.57
1389.00	836.35
1390.00	848.05
1391.00	837.91
1392.00	825.43
1393.00	823.09
1394.00	901.11
1395.00	1086.01
1396.00	1373.11
1397.00	1632.91
1398.00	1806.11
1399.00	1814.70
1400.00	1756.96
1401.00	1691.43
1402.00	2260.18
1403.00	5732.75
1404.00	14874.88
1405.00	30627.47
1406.00	46415.16
1407.00	56938.99
1408.00	58789.58
1409.00	54560.23
1410.00	44792.39
1411.00	31585.53
1412.00	18911.53
1413.00	9973.02
1414.00	5296.63
1415.00	3041.14
1416.00	2459.12
1417.00	3596.62
1418.00	6565.20
1419.00	11176.84
1420.00	15332.85
1421.00	17431.53
1422.00	16355.66
1423.00	13399.57
1424.00	9669.53
1425.00	6334.27
1426.00	3786.99
1427.00	2231.31
1428.00	1448.79
1429.00	1095.37
1430.00	967.42
1431.00	875.36
1432.00	796.56
1433.00	741.17
1434.00	716.20
1435.00	711.52
1436.00	699.04
1437.00	682.66
1438.00	668.61
1439.00	629.60
1440.00	623.36
1441.00	609.32
1442.00	631.16
1443.00	622.58
1444.00	623.36
1445.00	590.60
1446.00	582.01
1447.00	581.23
1448.00	630.38
1449.00	658.47
1450.00	718.54
1451.00	1020.47
1452.00	1916.12
1453.00	3698.83
1454.00	6233.63
1455.00	8714.59
1456.00	10137.64
1457.00	9864.58
1458.00	8448.55
1459.00	6335.05
1460.00	4319.85
1461.00	2622.18
1462.00	1595.47
1463.00	1080.55
1464.00	827.77
1465.00	709.18
1466.00	667.83
1467.00	619.46
1468.00	636.63
1469.00	644.43
1470.00	636.63
1471.00	646.77
1472.00	633.50
1473.00	661.59
1474.00	651.45
1475.00	649.11
1476.00	629.60
1477.00	624.92
1478.00	647.55
1479.00	677.20
1480.00	680.32
1481.00	682.66
1482.00	769.26
1483.00	1182.75
1484.00	3062.98
1485.00	7644.19
1486.00	15790.03
1487.00	25694.40
1488.00	33347.17
1489.00	35376.42
1490.00	31825.04
1491.00	25086.64
1492.00	17525.15
1493.00	10769.58
1494.00	5881.77
1495.00	3189.37
1496.00	1867.75
1497.00	1233.46
1498.00	933.87
1499.00	777.06
1500.00	718.54
1501.00	694.36
1502.00	653.79
1503.00	644.43
1504.00	629.60
1505.00	663.15
1506.00	649.89
1507.00	670.17
1508.00	703.72
1509.00	978.34
1510.00	1735.90
1511.00	3251.78
1512.00	5407.42
1513.00	7505.32
1514.00	8617.85
1515.00	8384.58
1516.00	7158.92
1517.00	5465.15
1518.00	3815.85
1519.00	2413.87
1520.00	1543.19
1521.00	1041.54
1522.00	819.97
1523.00	717.76
1524.00	716.98
1525.00	704.50
1526.00	767.70
1527.00	843.37
1528.00	1089.91
1529.00	2065.91
1530.00	4697.46
1531.00	9490.87
1532.00	15910.96
1533.00	21350.37
1534.00	23704.17
1535.00	22079.05
1536.00	18040.07
1537.00	13075.01
1538.00	8478.20
1539.00	4954.91
1540.00	2787.58
1541.00	1682.85
1542.00	1133.60
1543.00	890.18
1544.00	781.74
1545.00	737.27
1546.00	727.13
1547.00	724.79
1548.00	734.93
1549.00	713.08
1550.00	695.92
1551.00	646.77
1552.00	695.14
1553.00	717.76
1554.00	742.73
1555.00	721.67
1556.00	758.33
1557.00	809.83
1558.00	866.00
1559.00	903.45
1560.00	997.07
1561.00	1702.35
1562.00	4608.51
1563.00	11048.11
1564.00	21737.34
1565.00	33612.43
1566.00	42115.60
1567.00	43628.37
1568.00	39008.15
1569.00	30732.01
1570.00	21585.20
1571.00	13305.95
1572.00	7557.59
1573.00	4408.79
1574.00	3920.40
1575.00	7671.50
1576.00	17273.93
1577.00	32792.47
1578.00	47490.25
1579.00	56947.57
1580.00	58214.58
1581.00	54216.17
1582.00	45173.90
1583.00	32863.46
1584.00	20357.98
1585.00	11101.16
1586.00	5852.12
1587.00	3212.78
1588.00	1938.74
1589.00	1334.89
1590.00	1058.70
1591.00	942.46
1592.00	877.70
1593.00	798.90
1594.00	755.21
1595.00	694.36
1596.00	687.34
1597.00	672.51
1598.00	645.99
1599.00	626.48
1600.00	596.84
1601.00	624.92
1602.00	612.44
1603.00	621.02
1604.00	604.64
1605.00	596.06
1606.00	603.86
1607.00	617.90
1608.00	612.44
1609.00	592.16
1610.00	588.25
1611.00	581.23
1612.00	579.67
1613.00	560.95
1614.00	585.13
1615.00	582.79
1616.00	579.67
1617.00	564.07
1618.00	561.73
1619.00	562.51
1620.00	561.73
1621.00	552.37
1622.00	555.49
1623.00	572.65
1624.00	593.72
1625.00	589.03
1626.00	567.19
1627.00	563.29
1628.00	539.10
1629.00	539.88
1630.00	527.40
1631.00	543.00
1632.00	535.20
1633.00	547.69
1634.00	560.17
1635.00	590.60
1636.00	595.28
1637.00	609.32
1638.00	606.20
1639.00	615.56
1640.00	624.14
1641.00	652.23
1642.00	667.05
1643.00	685.78
1644.00	762.23
1645.00	1294.32
1646.00	3414.06
1647.00	8106.84
1648.00	15944.51
1649.00	25284.81
1650.00	32704.31
1651.00	34962.92
1652.00	32000.58
1653.00	25901.93
1654.00	18878.76
1655.00	12212.14
1656.00	7054.37
1657.00	3889.97
1658.00	2241.45
1659.00	1377.80
1660.00	997.07
1661.00	832.45
1662.00	791.88
1663.00	907.35
1664.00	1497.16
1665.00	2870.28
1666.00	5263.08
1667.00	8394.72
1668.00	11136.27
1669.00	12343.99
1670.00	11633.24
1671.00	9743.65
1672.00	7381.27
1673.00	5064.92
1674.00	3141.78
1675.00	1859.95
1676.00	1185.87
1677.00	841.81
1678.00	688.12
1679.00	601.52
1680.00	582.79
1681.00	541.44
1682.00	529.74
1683.00	513.36
1684.00	514.92
1685.00	504.78
1686.00	482.93
1687.00	486.05
1688.00	493.07
1689.00	521.94
1690.00	532.08
1691.00	554.71
1692.00	540.66
1693.00	535.20
1694.00	501.65
1695.00	496.19
1696.00	520.38
1697.00	508.68
1698.00	508.68
1699.00	507.90
1700.00	551.59
1701.00	552.37
1702.00	582.01
1703.00	585.13
1704.00	603.08
1705.00	531.30
1706.00	539.10
1707.00	543.78
1708.00	616.34
1709.00	847.27
1710.00	1883.35
1711.00	4076.43
1712.00	7653.55
1713.00	12010.85
1714.00	15669.11
1715.00	17151.45
1716.00	16194.95
1717.00	13547.02
1718.00	10227.36
1719.00	6896.78
1720.00	4207.50
1721.00	2508.27
1722.00	1536.17
1723.00	1055.58
1724.00	802.02
1725.00	666.27
1726.00	613.22
1727.00	574.21
1728.00	562.51
1729.00	557.83
1730.00	541.44
1731.00	569.53
1732.00	528.18
1733.00	538.32
1734.00	540.66
1735.00	579.67
1736.00	560.95
1737.00	521.94
1738.00	488.39
1739.00	505.56
1740.00	468.11
1741.00	474.35
1742.00	475.91
1743.00	514.92
1744.00	525.06
1745.00	536.76
1746.00	520.38
1747.00	503.22
1748.00	505.56
1749.00	550.81
1750.00	599.18
1751.00	613.22
1752.00	588.25
1753.00	580.45
1754.00	551.59
1755.00	549.25
1756.00	547.69
1757.00	562.51
1758.00	578.11
1759.00	582.01
1760.00	586.69
1761.00	600.74
1762.00	618.68
1763.00	667.05
1764.00	801.24
1765.00	1488.58
1766.00	3708.19
1767.00	8099.03
1768.00	15055.89
1769.00	22719.58
1770.00	28746.46
1771.00	30341.14
1772.00	28064.58
1773.00	22789.80
1774.00	16769.94
1775.00	10935.76
1776.00	6589.39
1777.00	3823.66
1778.00	2232.09
1779.00	1405.88
1780.00	1010.33
1781.00	794.22
1782.00	706.06
1783.00	649.11
1784.00	642.09
1785.00	635.07
1786.00	619.46
1787.00	651.45
1788.00	639.75
1789.00	634.29
1790.00	621.02
1791.00	632.72
1792.00	790.32
1793.00	1543.19
1794.00	3447.61
1795.00	6764.15
1796.00	11426.50
1797.00	15930.47
1798.00	18630.66
1799.00	18399.73
1800.00	16014.73
1801.00	12544.49
1802.00	8947.09
1803.00	5724.17
1804.00	3418.74
1805.00	1981.65
1806.00	1242.82
1807.00	873.02
1808.00	724.79
1809.00	637.41
1810.00	572.65
1811.00	543.00
1812.00	566.41
1813.00	573.43
1814.00	521.94
1815.00	489.17
1816.00	480.59
1817.00	498.53
1818.00	481.37
1819.00	507.12
1820.00	541.44
1821.00	580.45
1822.00	606.20
1823.00	660.03
1824.00	701.38
1825.00	716.20
1826.00	677.98
1827.00	628.04
1828.00	587.47
1829.00	550.03
1830.00	519.60
1831.00	466.55
1832.00	444.70
1833.00	402.57
1834.00	422.08
1835.00	433.00
1836.00	479.03
1837.00	462.65
1838.00	476.69
1839.00	448.60
1840.00	459.53
1841.00	428.32
1842.00	442.36
1843.00	433.00
1844.00	443.14
1845.00	431.44
1846.00	428.32
1847.00	411.15
1848.00	418.18
1849.00	431.44
1850.00	455.62
1851.00	466.55
1852.00	464.99
1853.00	458.75
1854.00	432.22
1855.00	423.64
1856.00	436.90
1857.00	457.18
1858.00	471.23
1859.00	447.82
1860.00	441.58
1861.00	436.12
1862.00	425.20
1863.00	423.64
1864.00	431.44
1865.00	477.47
1866.00	488.39
1867.00	465.77
1868.00	412.71
1869.00	431.44
1870.00	488.39
1871.00	529.74
1872.00	509.46
1873.00	448.60
1874.00	422.86
1875.00	436.12
1876.00	434.56
1877.00	442.36
1878.00	421.30
1879.00	433.00
1880.00	422.86
1881.00	441.58
1882.00	470.45
1883.00	479.03
1884.00	464.99
1885.00	483.71
1886.00	485.27
1887.00	488.39
1888.00	446.26
1889.00	459.53
1890.00	474.35
1891.00	476.69
1892.00	462.65
1893.00	432.22
1894.00	410.37
1895.00	404.13
1896.00	422.08
1897.00	457.18
1898.00	456.40
1899.00	451.72
1900.00	422.08
1901.00	422.86
1902.00	425.98
1903.00	462.65
1904.00	482.15
1905.00	488.39
1906.00	500.09
1907.00	530.52
1908.00	599.18
1909.00	649.89
1910.00	677.20
1911.00	639.75
1912.00	592.94
1913.00	530.52
1914.00	518.04
1915.00	513.36
1916.00	528.96
1917.00	500.87
1918.00	486.05
1919.00	478.25
1920.00	496.19
1921.00	468.11
1922.00	478.25
1923.00	463.43
1924.00	450.16
1925.00	436.12
1926.00	415.06
1927.00	443.14
1928.00	422.08
1929.00	418.96
1930.00	418.96
1931.00	445.48
1932.00	475.91
1933.00	479.81
1934.00	479.81
1935.00	502.44
1936.00	511.02
1937.00	507.12
1938.00	491.51
1939.00	481.37
1940.00	482.15
1941.00	468.89
1942.00	500.87
1943.00	499.31
1944.00	504.78
1945.00	513.36
1946.00	592.94
1947.00	985.37
1948.00	2078.40
1949.00	4095.94
1950.00	7078.56
1951.00	10484.04
1952.00	13309.07
1953.00	14453.59
1954.00	13577.45
1955.00	11601.26
1956.00	9117.95
1957.00	6827.34
1958.00	4719.30
1959.00	3157.38
1960.00	2054.21
1961.00	1383.26
1962.00	998.63
1963.00	803.58
1964.00	666.27
1965.00	605.42
1966.00	543.00
1967.00	540.66
1968.00	510.24
1969.00	521.94
1970.00	468.89
1971.00	470.45
1972.00	496.19
1973.00	558.61
1974.00	582.01
1975.00	621.80
1976.00	698.26
1977.00	871.46
1978.00	1054.80
1979.00	1210.84
1980.00	1279.49
1981.00	1252.19
1982.00	1157.78
1983.00	1014.23
1984.00	858.20
1985.00	725.57
1986.00	644.43
1987.00	597.62
1988.00	553.15
1989.00	532.86
1990.00	500.09
1991.00	493.07
1992.00	493.85
1993.00	493.85
1994.00	495.41
1995.00	478.25
1996.00	482.93
1997.00	500.87
1998.00	490.73
1999.00	479.81
2000.00	489.95
2001.00	508.68
2002.00	518.04
2003.00	516.48
2004.00	506.34
2005.00	508.68
2006.00	499.31
2007.00	505.56
2008.00	514.92
2009.00	505.56
2010.00	489.17
2011.00	464.21
2012.00	485.27
2013.00	506.34
2014.00	517.26
2015.00	507.12
2016.00	507.12
2017.00	510.24
2018.00	549.25
2019.00	627.26
2020.00	768.48
2021.00	965.86
2022.00	1184.31
2023.00	1403.54
2024.00	1941.08
2025.00	3514.70
2026.00	6763.37
2027.00	11870.42
2028.00	18758.61
2029.00	25140.47
2030.00	29448.62
2031.00	29849.63
2032.00	27823.51
2033.00	23809.49
2034.00	18929.47
2035.00	13822.42
2036.00	9462.79
2037.00	6217.24
2038.00	3928.98
2039.00	2462.24
2040.00	1612.63
2041.00	1178.07
2042.00	917.49
2043.00	803.58
2044.00	715.42
2045.00	690.46
2046.00	648.33
2047.00	601.52
>>>>>End Processed Spectral Data<<<<<
