SpectraSuite Data File
++++++++++++++++++++++++++++++++++++
Date: Thu Nov 16 13:55:19 EST 2017
User: cheriyan
Dark Spectrum Present: No
Reference Spectrum Present: No
Number of Sampled Component Spectra: 1
Spectrometers: USB2+H05261
Integration Time (usec): 100000 (USB2+H05261)
Spectra Averaged: 1 (USB2+H05261)
Boxcar Smoothing: 1 (USB2+H05261)
Correct for Electrical Dark: No (USB2+H05261)
Strobe/Lamp Enabled: No (USB2+H05261)
Correct for Detector Non-linearity: No (USB2+H05261)
Correct for Stray Light: No (USB2+H05261)
Number of Pixels in Processed Spectrum: 2048
>>>>>Begin Processed Spectral Data<<<<<
0.00	411.93
1.00	411.93
2.00	379.95
3.00	327.68
4.00	265.26
5.00	228.59
6.00	233.27
7.00	221.57
8.00	208.31
9.00	187.24
10.00	210.65
11.00	249.66
12.00	254.34
13.00	239.51
14.00	224.69
15.00	241.08
16.00	237.95
17.00	231.71
18.00	217.67
19.00	241.08
20.00	271.50
21.00	297.25
22.00	306.61
23.00	316.75
24.00	312.07
25.00	311.29
26.00	322.21
27.00	365.12
28.00	390.09
29.00	399.45
30.00	379.95
31.00	379.95
32.00	369.02
33.00	385.41
34.00	386.19
35.00	397.11
36.00	378.39
37.00	391.65
38.00	407.25
39.00	420.52
40.00	422.86
41.00	397.89
42.00	426.76
43.00	437.68
44.00	455.62
45.00	445.48
46.00	411.15
47.00	411.93
48.00	409.59
49.00	409.59
50.00	422.08
51.00	420.52
52.00	466.55
53.00	453.28
54.00	454.06
55.00	419.74
56.00	407.25
57.00	419.74
58.00	419.74
59.00	425.20
60.00	379.17
61.00	369.80
62.00	365.12
63.00	386.19
64.00	395.55
65.00	411.15
66.00	420.52
67.00	436.90
68.00	426.76
69.00	422.86
70.00	418.96
71.00	394.77
72.00	381.51
73.00	380.73
74.00	410.37
75.00	418.18
76.00	405.69
77.00	408.03
78.00	409.59
79.00	422.08
80.00	401.01
81.00	372.15
82.00	370.58
83.00	383.07
84.00	394.77
85.00	394.77
86.00	377.61
87.00	372.93
88.00	372.93
89.00	382.29
90.00	397.11
91.00	377.61
92.00	393.21
93.00	386.19
94.00	387.75
95.00	389.31
96.00	398.67
97.00	433.78
98.00	403.35
99.00	386.19
100.00	333.14
101.00	363.56
102.00	372.93
103.00	399.45
104.00	383.85
105.00	404.13
106.00	392.43
107.00	383.07
108.00	373.71
109.00	382.29
110.00	420.52
111.00	421.30
112.00	425.20
113.00	426.76
114.00	419.74
115.00	436.12
116.00	413.49
117.00	429.88
118.00	441.58
119.00	447.04
120.00	422.08
121.00	387.75
122.00	397.11
123.00	408.81
124.00	422.08
125.00	379.95
126.00	386.97
127.00	372.15
128.00	410.37
129.00	415.84
130.00	429.10
131.00	422.08
132.00	408.03
133.00	415.06
134.00	411.93
135.00	425.20
136.00	405.69
137.00	396.33
138.00	382.29
139.00	393.99
140.00	376.83
141.00	390.87
142.00	371.36
143.00	407.25
144.00	414.27
145.00	455.62
146.00	476.69
147.00	500.09
148.00	501.65
149.00	481.37
150.00	457.96
151.00	443.92
152.00	447.04
153.00	423.64
154.00	439.24
155.00	415.06
156.00	413.49
157.00	405.69
158.00	406.47
159.00	430.66
160.00	410.37
161.00	402.57
162.00	383.85
163.00	413.49
164.00	425.20
165.00	436.12
166.00	429.88
167.00	431.44
168.00	459.53
169.00	466.55
170.00	464.21
171.00	429.10
172.00	420.52
173.00	403.35
174.00	387.75
175.00	374.49
176.00	408.03
177.00	454.84
178.00	460.31
179.00	442.36
180.00	379.95
181.00	363.56
182.00	372.93
183.00	411.93
184.00	441.58
185.00	438.46
186.00	423.64
187.00	384.63
188.00	363.56
189.00	384.63
190.00	406.47
191.00	437.68
192.00	468.11
193.00	461.09
194.00	504.78
195.00	475.91
196.00	503.22
197.00	477.47
198.00	485.27
199.00	472.01
200.00	462.65
201.00	452.50
202.00	435.34
203.00	408.81
204.00	390.87
205.00	402.57
206.00	425.98
207.00	430.66
208.00	447.82
209.00	419.74
210.00	436.12
211.00	415.84
212.00	440.80
213.00	426.76
214.00	432.22
215.00	415.06
216.00	436.90
217.00	424.42
218.00	436.90
219.00	411.15
220.00	420.52
221.00	436.90
222.00	442.36
223.00	443.14
224.00	425.98
225.00	416.62
226.00	415.84
227.00	422.08
228.00	419.74
229.00	393.21
230.00	387.75
231.00	390.87
232.00	409.59
233.00	408.03
234.00	431.44
235.00	423.64
236.00	413.49
237.00	411.93
238.00	425.20
239.00	418.18
240.00	405.69
241.00	386.19
242.00	398.67
243.00	379.95
244.00	415.06
245.00	406.47
246.00	427.54
247.00	401.01
248.00	408.81
249.00	401.01
250.00	377.61
251.00	379.95
252.00	385.41
253.00	400.23
254.00	405.69
255.00	434.56
256.00	479.81
257.00	488.39
258.00	468.89
259.00	464.99
260.00	456.40
261.00	436.12
262.00	428.32
263.00	432.22
264.00	454.84
265.00	460.31
266.00	488.39
267.00	530.52
268.00	540.66
269.00	552.37
270.00	574.21
271.00	599.96
272.00	636.63
273.00	628.82
274.00	628.82
275.00	592.94
276.00	582.01
277.00	573.43
278.00	560.95
279.00	546.12
280.00	508.68
281.00	481.37
282.00	447.04
283.00	439.24
284.00	427.54
285.00	409.59
286.00	397.11
287.00	401.01
288.00	416.62
289.00	411.15
290.00	408.81
291.00	397.11
292.00	425.98
293.00	418.96
294.00	407.25
295.00	401.01
296.00	401.01
297.00	416.62
298.00	422.08
299.00	413.49
300.00	415.06
301.00	393.99
302.00	402.57
303.00	410.37
304.00	449.38
305.00	477.47
306.00	514.92
307.00	557.05
308.00	609.32
309.00	661.59
310.00	663.93
311.00	653.01
312.00	575.77
313.00	525.06
314.00	470.45
315.00	461.87
316.00	460.31
317.00	462.65
318.00	431.44
319.00	397.89
320.00	392.43
321.00	418.18
322.00	411.15
323.00	400.23
324.00	411.93
325.00	419.74
326.00	412.71
327.00	402.57
328.00	422.08
329.00	431.44
330.00	425.98
331.00	416.62
332.00	425.98
333.00	418.96
334.00	412.71
335.00	423.64
336.00	436.90
337.00	462.65
338.00	472.79
339.00	464.99
340.00	431.44
341.00	422.86
342.00	429.10
343.00	461.09
344.00	450.94
345.00	477.47
346.00	512.58
347.00	612.44
348.00	699.82
349.00	759.11
350.00	718.54
351.00	628.04
352.00	579.67
353.00	536.76
354.00	550.81
355.00	521.94
356.00	511.80
357.00	496.97
358.00	435.34
359.00	438.46
360.00	415.06
361.00	449.38
362.00	426.76
363.00	418.96
364.00	391.65
365.00	412.71
366.00	408.03
367.00	436.12
368.00	450.94
369.00	450.94
370.00	429.10
371.00	422.08
372.00	436.90
373.00	436.90
374.00	413.49
375.00	412.71
376.00	441.58
377.00	455.62
378.00	425.98
379.00	419.74
380.00	413.49
381.00	433.78
382.00	422.08
383.00	418.18
384.00	436.90
385.00	438.46
386.00	434.56
387.00	408.03
388.00	408.03
389.00	415.84
390.00	405.69
391.00	403.35
392.00	401.01
393.00	444.70
394.00	441.58
395.00	415.06
396.00	386.97
397.00	391.65
398.00	411.15
399.00	421.30
400.00	411.15
401.00	433.78
402.00	433.00
403.00	462.65
404.00	432.22
405.00	420.52
406.00	383.85
407.00	356.54
408.00	358.88
409.00	381.51
410.00	423.64
411.00	428.32
412.00	425.98
413.00	415.84
414.00	404.13
415.00	411.15
416.00	409.59
417.00	418.96
418.00	422.86
419.00	442.36
420.00	426.76
421.00	415.06
422.00	399.45
423.00	413.49
424.00	371.36
425.00	392.43
426.00	396.33
427.00	433.78
428.00	419.74
429.00	445.48
430.00	436.90
431.00	429.10
432.00	418.96
433.00	449.38
434.00	468.11
435.00	455.62
436.00	418.96
437.00	429.88
438.00	424.42
439.00	430.66
440.00	406.47
441.00	404.13
442.00	440.80
443.00	428.32
444.00	462.65
445.00	450.94
446.00	459.53
447.00	439.24
448.00	436.12
449.00	442.36
450.00	450.94
451.00	464.21
452.00	464.21
453.00	463.43
454.00	425.98
455.00	428.32
456.00	418.18
457.00	432.22
458.00	429.88
459.00	429.88
460.00	445.48
461.00	454.06
462.00	447.82
463.00	436.90
464.00	428.32
465.00	443.14
466.00	440.80
467.00	442.36
468.00	430.66
469.00	457.96
470.00	464.21
471.00	475.91
472.00	440.02
473.00	411.93
474.00	397.11
475.00	413.49
476.00	427.54
477.00	425.20
478.00	433.78
479.00	456.40
480.00	436.12
481.00	427.54
482.00	413.49
483.00	433.78
484.00	429.88
485.00	424.42
486.00	434.56
487.00	409.59
488.00	411.93
489.00	430.66
490.00	459.53
491.00	468.11
492.00	454.06
493.00	454.84
494.00	489.17
495.00	475.13
496.00	479.81
497.00	437.68
498.00	429.88
499.00	407.25
500.00	411.93
501.00	421.30
502.00	445.48
503.00	441.58
504.00	409.59
505.00	382.29
506.00	388.53
507.00	410.37
508.00	431.44
509.00	428.32
510.00	412.71
511.00	401.79
512.00	411.93
513.00	444.70
514.00	442.36
515.00	423.64
516.00	405.69
517.00	436.12
518.00	441.58
519.00	449.38
520.00	429.10
521.00	411.15
522.00	410.37
523.00	396.33
524.00	411.15
525.00	418.96
526.00	415.06
527.00	412.71
528.00	399.45
529.00	411.15
530.00	419.74
531.00	438.46
532.00	443.14
533.00	420.52
534.00	403.35
535.00	416.62
536.00	431.44
537.00	442.36
538.00	404.13
539.00	409.59
540.00	411.15
541.00	434.56
542.00	429.88
543.00	429.10
544.00	419.74
545.00	412.71
546.00	411.93
547.00	440.02
548.00	438.46
549.00	455.62
550.00	443.92
551.00	453.28
552.00	437.68
553.00	431.44
554.00	450.16
555.00	465.77
556.00	486.83
557.00	460.31
558.00	448.60
559.00	453.28
560.00	456.40
561.00	450.94
562.00	419.74
563.00	434.56
564.00	444.70
565.00	459.53
566.00	464.21
567.00	477.47
568.00	492.29
569.00	472.79
570.00	446.26
571.00	441.58
572.00	448.60
573.00	451.72
574.00	424.42
575.00	418.18
576.00	423.64
577.00	419.74
578.00	420.52
579.00	388.53
580.00	398.67
581.00	427.54
582.00	443.92
583.00	450.16
584.00	437.68
585.00	464.99
586.00	452.50
587.00	440.02
588.00	415.84
589.00	402.57
590.00	416.62
591.00	402.57
592.00	411.93
593.00	396.33
594.00	418.96
595.00	414.27
596.00	400.23
597.00	397.89
598.00	407.25
599.00	409.59
600.00	408.81
601.00	404.13
602.00	428.32
603.00	404.91
604.00	408.81
605.00	385.41
606.00	411.93
607.00	407.25
608.00	408.81
609.00	402.57
610.00	400.23
611.00	403.35
612.00	368.24
613.00	400.23
614.00	408.03
615.00	460.31
616.00	463.43
617.00	485.27
618.00	492.29
619.00	464.21
620.00	435.34
621.00	394.77
622.00	401.01
623.00	401.01
624.00	411.15
625.00	424.42
626.00	444.70
627.00	474.35
628.00	476.69
629.00	493.85
630.00	486.05
631.00	450.94
632.00	398.67
633.00	362.78
634.00	370.58
635.00	376.83
636.00	387.75
637.00	410.37
638.00	415.84
639.00	425.98
640.00	432.22
641.00	451.72
642.00	449.38
643.00	435.34
644.00	433.78
645.00	446.26
646.00	431.44
647.00	436.12
648.00	445.48
649.00	434.56
650.00	426.76
651.00	391.65
652.00	418.18
653.00	424.42
654.00	486.83
655.00	475.13
656.00	455.62
657.00	397.11
658.00	408.81
659.00	391.65
660.00	405.69
661.00	415.06
662.00	444.70
663.00	453.28
664.00	455.62
665.00	458.75
666.00	429.10
667.00	383.07
668.00	379.95
669.00	406.47
670.00	418.96
671.00	407.25
672.00	408.81
673.00	433.78
674.00	450.16
675.00	445.48
676.00	449.38
677.00	447.04
678.00	429.88
679.00	409.59
680.00	396.33
681.00	406.47
682.00	394.77
683.00	410.37
684.00	409.59
685.00	429.88
686.00	397.11
687.00	417.40
688.00	428.32
689.00	468.11
690.00	459.53
691.00	432.22
692.00	425.20
693.00	424.42
694.00	452.50
695.00	422.86
696.00	425.20
697.00	408.03
698.00	421.30
699.00	415.06
700.00	411.93
701.00	420.52
702.00	419.74
703.00	426.76
704.00	415.84
705.00	444.70
706.00	453.28
707.00	460.31
708.00	437.68
709.00	447.82
710.00	447.82
711.00	433.00
712.00	429.10
713.00	423.64
714.00	433.00
715.00	432.22
716.00	444.70
717.00	436.90
718.00	464.21
719.00	478.25
720.00	479.03
721.00	429.88
722.00	420.52
723.00	433.78
724.00	445.48
725.00	457.96
726.00	436.90
727.00	418.18
728.00	388.53
729.00	397.89
730.00	433.00
731.00	435.34
732.00	447.04
733.00	447.04
734.00	482.15
735.00	501.65
736.00	525.06
737.00	533.64
738.00	500.87
739.00	448.60
740.00	408.81
741.00	435.34
742.00	462.65
743.00	479.03
744.00	472.01
745.00	471.23
746.00	496.19
747.00	494.63
748.00	450.16
749.00	393.99
750.00	391.65
751.00	424.42
752.00	439.24
753.00	425.98
754.00	418.96
755.00	454.84
756.00	472.79
757.00	485.27
758.00	464.99
759.00	468.89
760.00	494.63
761.00	494.63
762.00	488.39
763.00	464.99
764.00	480.59
765.00	492.29
766.00	489.95
767.00	450.94
768.00	436.90
769.00	438.46
770.00	454.06
771.00	436.90
772.00	411.93
773.00	419.74
774.00	404.13
775.00	415.84
776.00	398.67
777.00	432.22
778.00	438.46
779.00	469.67
780.00	515.70
781.00	568.75
782.00	583.57
783.00	610.10
784.00	591.38
785.00	565.63
786.00	493.07
787.00	458.75
788.00	454.84
789.00	441.58
790.00	440.02
791.00	425.98
792.00	417.40
793.00	412.71
794.00	397.89
795.00	414.27
796.00	415.84
797.00	476.69
798.00	472.79
799.00	494.63
800.00	448.60
801.00	446.26
802.00	415.84
803.00	433.78
804.00	442.36
805.00	457.96
806.00	457.96
807.00	462.65
808.00	448.60
809.00	430.66
810.00	424.42
811.00	417.40
812.00	424.42
813.00	436.90
814.00	457.18
815.00	447.82
816.00	438.46
817.00	425.20
818.00	425.98
819.00	394.77
820.00	400.23
821.00	444.70
822.00	532.86
823.00	558.61
824.00	526.62
825.00	494.63
826.00	464.99
827.00	479.81
828.00	438.46
829.00	444.70
830.00	419.74
831.00	447.82
832.00	474.35
833.00	508.68
834.00	496.19
835.00	488.39
836.00	475.13
837.00	487.61
838.00	490.73
839.00	478.25
840.00	447.82
841.00	441.58
842.00	440.02
843.00	458.75
844.00	454.84
845.00	450.16
846.00	430.66
847.00	421.30
848.00	389.31
849.00	423.64
850.00	409.59
851.00	441.58
852.00	430.66
853.00	431.44
854.00	425.20
855.00	441.58
856.00	450.94
857.00	452.50
858.00	422.86
859.00	418.96
860.00	424.42
861.00	445.48
862.00	440.02
863.00	433.00
864.00	420.52
865.00	440.02
866.00	465.77
867.00	452.50
868.00	450.94
869.00	449.38
870.00	452.50
871.00	453.28
872.00	437.68
873.00	445.48
874.00	418.18
875.00	429.10
876.00	435.34
877.00	448.60
878.00	452.50
879.00	432.22
880.00	443.92
881.00	435.34
882.00	448.60
883.00	449.38
884.00	451.72
885.00	473.57
886.00	500.87
887.00	496.19
888.00	460.31
889.00	423.64
890.00	420.52
891.00	430.66
892.00	437.68
893.00	439.24
894.00	415.84
895.00	432.22
896.00	433.78
897.00	463.43
898.00	437.68
899.00	448.60
900.00	434.56
901.00	461.87
902.00	461.87
903.00	532.08
904.00	596.84
905.00	738.83
906.00	802.80
907.00	804.36
908.00	724.79
909.00	956.50
910.00	1010.33
911.00	1061.82
912.00	873.02
913.00	855.08
914.00	812.95
915.00	671.73
916.00	590.60
917.00	550.81
918.00	525.84
919.00	487.61
920.00	451.72
921.00	464.21
922.00	480.59
923.00	487.61
924.00	489.95
925.00	469.67
926.00	481.37
927.00	466.55
928.00	482.15
929.00	446.26
930.00	433.78
931.00	423.64
932.00	442.36
933.00	445.48
934.00	454.84
935.00	443.92
936.00	457.18
937.00	457.96
938.00	471.23
939.00	468.11
940.00	468.89
941.00	459.53
942.00	500.87
943.00	658.47
944.00	1088.35
945.00	1915.34
946.00	2928.01
947.00	3626.27
948.00	3680.10
949.00	3171.43
950.00	2396.71
951.00	1661.00
952.00	1036.08
953.00	702.94
954.00	535.98
955.00	514.92
956.00	525.84
957.00	506.34
958.00	481.37
959.00	452.50
960.00	439.24
961.00	442.36
962.00	418.96
963.00	409.59
964.00	411.15
965.00	438.46
966.00	472.79
967.00	467.33
968.00	465.77
969.00	430.66
970.00	445.48
971.00	447.04
972.00	475.91
973.00	461.09
974.00	462.65
975.00	434.56
976.00	428.32
977.00	397.89
978.00	420.52
979.00	422.08
980.00	429.88
981.00	432.22
982.00	425.98
983.00	422.08
984.00	433.00
985.00	428.32
986.00	418.96
987.00	389.31
988.00	420.52
989.00	427.54
990.00	451.72
991.00	430.66
992.00	431.44
993.00	437.68
994.00	426.76
995.00	424.42
996.00	426.76
997.00	415.06
998.00	417.40
999.00	404.91
1000.00	418.96
1001.00	436.12
1002.00	447.82
1003.00	463.43
1004.00	457.96
1005.00	458.74
1006.00	465.77
1007.00	478.25
1008.00	452.50
1009.00	457.18
1010.00	468.89
1011.00	479.03
1012.00	485.27
1013.00	460.31
1014.00	447.04
1015.00	438.46
1016.00	434.56
1017.00	425.20
1018.00	399.45
1019.00	423.64
1020.00	446.26
1021.00	469.67
1022.00	450.16
1023.00	453.28
1024.00	454.06
1025.00	458.74
1026.00	457.96
1027.00	464.21
1028.00	485.27
1029.00	468.11
1030.00	466.55
1031.00	454.84
1032.00	478.25
1033.00	461.09
1034.00	467.33
1035.00	443.92
1036.00	465.77
1037.00	462.65
1038.00	468.11
1039.00	443.92
1040.00	450.94
1041.00	493.07
1042.00	496.19
1043.00	499.31
1044.00	526.62
1045.00	596.06
1046.00	606.98
1047.00	566.41
1048.00	484.49
1049.00	451.72
1050.00	445.48
1051.00	452.50
1052.00	461.87
1053.00	440.02
1054.00	454.84
1055.00	420.52
1056.00	448.60
1057.00	428.32
1058.00	442.36
1059.00	408.03
1060.00	392.43
1061.00	386.97
1062.00	397.11
1063.00	440.80
1064.00	468.89
1065.00	457.18
1066.00	442.36
1067.00	435.34
1068.00	470.45
1069.00	478.25
1070.00	460.31
1071.00	434.56
1072.00	399.45
1073.00	423.64
1074.00	448.60
1075.00	468.89
1076.00	476.69
1077.00	472.01
1078.00	483.71
1079.00	504.78
1080.00	508.68
1081.00	479.03
1082.00	448.60
1083.00	430.66
1084.00	438.46
1085.00	426.76
1086.00	440.02
1087.00	439.24
1088.00	424.42
1089.00	429.10
1090.00	464.99
1091.00	469.67
1092.00	478.25
1093.00	450.94
1094.00	480.59
1095.00	486.83
1096.00	490.73
1097.00	482.93
1098.00	457.96
1099.00	509.46
1100.00	532.08
1101.00	582.79
1102.00	578.11
1103.00	582.01
1104.00	564.85
1105.00	517.26
1106.00	501.65
1107.00	450.94
1108.00	461.09
1109.00	431.44
1110.00	433.78
1111.00	447.82
1112.00	464.21
1113.00	463.43
1114.00	446.26
1115.00	443.92
1116.00	466.55
1117.00	479.03
1118.00	469.67
1119.00	484.49
1120.00	511.80
1121.00	544.56
1122.00	551.59
1123.00	529.74
1124.00	525.84
1125.00	514.14
1126.00	495.41
1127.00	464.99
1128.00	440.80
1129.00	436.90
1130.00	448.60
1131.00	442.36
1132.00	440.80
1133.00	450.94
1134.00	458.75
1135.00	461.09
1136.00	467.33
1137.00	498.53
1138.00	526.62
1139.00	573.43
1140.00	577.33
1141.00	576.55
1142.00	511.80
1143.00	497.75
1144.00	475.91
1145.00	484.49
1146.00	485.27
1147.00	493.85
1148.00	502.43
1149.00	506.34
1150.00	507.12
1151.00	503.22
1152.00	516.48
1153.00	528.18
1154.00	547.69
1155.00	589.03
1156.00	674.85
1157.00	731.03
1158.00	728.69
1159.00	690.46
1160.00	620.24
1161.00	585.91
1162.00	558.61
1163.00	667.83
1164.00	841.03
1165.00	1142.18
1166.00	1442.55
1167.00	1688.31
1168.00	1717.17
1169.00	1556.46
1170.00	1281.05
1171.00	1026.72
1172.00	830.11
1173.00	671.73
1174.00	568.75
1175.00	543.00
1176.00	541.44
1177.00	571.87
1178.00	565.63
1179.00	585.13
1180.00	578.11
1181.00	601.52
1182.00	624.14
1183.00	656.13
1184.00	670.95
1185.00	677.19
1186.00	675.63
1187.00	663.15
1188.00	663.93
1189.00	665.49
1190.00	727.91
1191.00	798.90
1192.00	881.60
1193.00	888.62
1194.00	889.40
1195.00	853.52
1196.00	836.35
1197.00	815.29
1198.00	877.70
1199.00	1009.55
1200.00	1213.96
1201.00	1409.00
1202.00	1519.79
1203.00	1511.99
1204.00	1409.78
1205.00	1293.54
1206.00	1199.91
1207.00	1135.94
1208.00	1130.48
1209.00	1139.84
1210.00	1172.61
1211.00	1189.77
1212.00	1249.07
1213.00	1405.88
1214.00	1641.50
1215.00	1968.39
1216.00	2500.47
1217.00	5768.64
1218.00	21234.12
1219.00	41996.23
1220.00	59930.20
1221.00	65535.00
1222.00	65535.00
1223.00	65535.00
1224.00	65535.00
1225.00	65361.02
1226.00	56282.08
1227.00	40662.13
1228.00	22035.36
1229.00	10807.81
1230.00	5495.58
1231.00	3156.60
1232.00	2214.15
1233.00	1851.36
1234.00	1675.04
1235.00	1618.87
1236.00	2101.02
1237.00	3805.71
1238.00	7154.24
1239.00	11625.44
1240.00	15190.08
1241.00	16253.46
1242.00	14482.45
1243.00	11199.46
1244.00	7673.84
1245.00	4784.84
1246.00	2776.66
1247.00	1723.41
1248.00	1193.67
1249.00	992.39
1250.00	936.99
1251.00	990.83
1252.00	1103.17
1253.00	1222.54
1254.00	1274.03
1255.00	1245.95
1256.00	1194.45
1257.00	1132.82
1258.00	1071.19
1259.00	986.93
1260.00	941.68
1261.00	911.25
1262.00	893.30
1263.00	857.42
1264.00	792.66
1265.00	757.55
1266.00	751.31
1267.00	764.57
1268.00	768.48
1269.00	752.09
1270.00	771.60
1271.00	791.10
1272.00	802.80
1273.00	821.53
1274.00	866.00
1275.00	1254.53
1276.00	2980.28
1277.00	7209.63
1278.00	14551.11
1279.00	22870.93
1280.00	28511.63
1281.00	28720.71
1282.00	24478.10
1283.00	17844.24
1284.00	11624.66
1285.00	6619.04
1286.00	3687.90
1287.00	2113.50
1288.00	1328.64
1289.00	1006.43
1290.00	886.28
1291.00	885.50
1292.00	912.81
1293.00	928.41
1294.00	927.63
1295.00	1089.91
1296.00	1670.36
1297.00	2930.35
1298.00	4657.67
1299.00	6212.56
1300.00	6783.65
1301.00	6299.16
1302.00	5070.38
1303.00	3705.85
1304.00	2470.05
1305.00	1617.31
1306.00	1159.35
1307.00	951.82
1308.00	873.80
1309.00	821.53
1310.00	768.48
1311.00	719.32
1312.00	687.34
1313.00	655.35
1314.00	630.38
1315.00	617.90
1316.00	599.96
1317.00	574.99
1318.00	539.10
1319.00	536.76
1320.00	514.14
1321.00	519.60
1322.00	516.48
1323.00	556.27
1324.00	567.19
1325.00	592.16
1326.00	585.91
1327.00	592.94
1328.00	600.74
1329.00	660.81
1330.00	1007.21
1331.00	1895.05
1332.00	3526.41
1333.00	5504.94
1334.00	7034.87
1335.00	7412.48
1336.00	6654.14
1337.00	5215.49
1338.00	3687.12
1339.00	2395.93
1340.00	1530.71
1341.00	1073.53
1342.00	836.35
1343.00	731.81
1344.00	679.54
1345.00	677.20
1346.00	645.99
1347.00	627.26
1348.00	593.72
1349.00	599.18
1350.00	605.42
1351.00	645.99
1352.00	677.98
1353.00	726.35
1354.00	735.71
1355.00	773.16
1356.00	795.78
1357.00	894.08
1358.00	1436.31
1359.00	3414.06
1360.00	7703.48
1361.00	14125.91
1362.00	20316.63
1363.00	23761.12
1364.00	22744.55
1365.00	18919.33
1366.00	13518.15
1367.00	8801.97
1368.00	5078.18
1369.00	2965.46
1370.00	1923.14
1371.00	1479.22
1372.00	2167.34
1373.00	5491.68
1374.00	12862.80
1375.00	24297.10
1376.00	35534.01
1377.00	42060.21
1378.00	40828.30
1379.00	34361.40
1380.00	24946.21
1381.00	16123.95
1382.00	8977.51
1383.00	4827.74
1384.00	2681.47
1385.00	1661.78
1386.00	1166.37
1387.00	960.40
1388.00	847.27
1389.00	851.17
1390.00	826.21
1391.00	810.61
1392.00	737.27
1393.00	756.77
1394.00	876.14
1395.00	1114.88
1396.00	1401.98
1397.00	1658.66
1398.00	1805.33
1399.00	1859.95
1400.00	1772.57
1401.00	1717.17
1402.00	2207.13
1403.00	5688.28
1404.00	14900.63
1405.00	30647.75
1406.00	46519.71
1407.00	57011.55
1408.00	58878.52
1409.00	54530.58
1410.00	44662.88
1411.00	31573.05
1412.00	18991.89
1413.00	10115.80
1414.00	5364.51
1415.00	3048.94
1416.00	2478.63
1417.00	3603.64
1418.00	6665.85
1419.00	11225.99
1420.00	15345.33
1421.00	17301.24
1422.00	16320.56
1423.00	13421.41
1424.00	9671.87
1425.00	6287.46
1426.00	3751.88
1427.00	2279.68
1428.00	1472.98
1429.00	1074.31
1430.00	904.23
1431.00	818.41
1432.00	800.46
1433.00	764.57
1434.00	770.82
1435.00	745.07
1436.00	720.89
1437.00	684.22
1438.00	631.94
1439.00	621.02
1440.00	635.85
1441.00	646.77
1442.00	643.65
1443.00	592.94
1444.00	571.87
1445.00	578.89
1446.00	602.30
1447.00	625.70
1448.00	621.02
1449.00	658.47
1450.00	708.40
1451.00	1006.43
1452.00	1863.85
1453.00	3613.01
1454.00	6214.12
1455.00	8727.08
1456.00	10149.34
1457.00	9918.41
1458.00	8501.61
1459.00	6451.30
1460.00	4381.48
1461.00	2660.41
1462.00	1612.63
1463.00	1078.99
1464.00	830.89
1465.00	735.71
1466.00	699.04
1467.00	703.72
1468.00	659.25
1469.00	621.02
1470.00	577.33
1471.00	582.01
1472.00	568.75
1473.00	582.01
1474.00	600.74
1475.00	608.54
1476.00	606.20
1477.00	630.38
1478.00	682.66
1479.00	714.64
1480.00	709.96
1481.00	716.20
1482.00	796.56
1483.00	1202.26
1484.00	3097.31
1485.00	7633.27
1486.00	15732.30
1487.00	25540.71
1488.00	33278.52
1489.00	35433.37
1490.00	31901.50
1491.00	25095.22
1492.00	17444.01
1493.00	10764.12
1494.00	5961.34
1495.00	3243.20
1496.00	1875.55
1497.00	1193.67
1498.00	929.19
1499.00	787.98
1500.00	713.86
1501.00	660.03
1502.00	622.58
1503.00	596.84
1504.00	584.35
1505.00	582.01
1506.00	635.07
1507.00	660.81
1508.00	724.01
1509.00	958.06
1510.00	1749.16
1511.00	3288.45
1512.00	5530.69
1513.00	7673.84
1514.00	8843.32
1515.00	8552.32
1516.00	7272.04
1517.00	5495.58
1518.00	3807.27
1519.00	2403.73
1520.00	1553.34
1521.00	1096.93
1522.00	855.86
1523.00	769.26
1524.00	702.94
1525.00	708.40
1526.00	713.08
1527.00	799.68
1528.00	1027.50
1529.00	2068.25
1530.00	4666.25
1531.00	9347.32
1532.00	15751.03
1533.00	21277.03
1534.00	23778.28
1535.00	22093.88
1536.00	18137.59
1537.00	13103.10
1538.00	8588.99
1539.00	4922.93
1540.00	2798.50
1541.00	1641.50
1542.00	1129.70
1543.00	908.13
1544.00	813.73
1545.00	753.65
1546.00	702.16
1547.00	655.35
1548.00	633.50
1549.00	661.59
1550.00	701.38
1551.00	715.42
1552.00	690.46
1553.00	692.02
1554.00	704.50
1555.00	712.30
1556.00	727.13
1557.00	748.19
1558.00	810.61
1559.00	883.94
1560.00	969.76
1561.00	1724.97
1562.00	4636.60
1563.00	11125.35
1564.00	21833.30
1565.00	33754.43
1566.00	42305.96
1567.00	43740.71
1568.00	39047.16
1569.00	30777.26
1570.00	21692.09
1571.00	13457.30
1572.00	7624.69
1573.00	4438.44
1574.00	3890.75
1575.00	7676.96
1576.00	17238.05
1577.00	32684.80
1578.00	47407.55
1579.00	56997.51
1580.00	58369.84
1581.00	54392.49
1582.00	45311.21
1583.00	32945.38
1584.00	20350.18
1585.00	11108.96
1586.00	5927.80
1587.00	3286.11
1588.00	1980.09
1589.00	1349.71
1590.00	1061.04
1591.00	921.39
1592.00	813.73
1593.00	784.08
1594.00	736.49
1595.00	739.61
1596.00	677.98
1597.00	632.72
1598.00	588.25
1599.00	592.94
1600.00	581.23
1601.00	621.80
1602.00	596.84
1603.00	610.88
1604.00	596.06
1605.00	610.10
1606.00	599.18
1607.00	589.03
1608.00	571.87
1609.00	554.71
1610.00	563.29
1611.00	593.72
1612.00	606.98
1613.00	572.65
1614.00	553.15
1615.00	525.06
1616.00	550.81
1617.00	535.98
1618.00	578.11
1619.00	557.05
1620.00	592.16
1621.00	581.23
1622.00	580.45
1623.00	550.81
1624.00	566.41
1625.00	554.71
1626.00	561.73
1627.00	566.41
1628.00	604.64
1629.00	603.86
1630.00	605.42
1631.00	629.60
1632.00	635.07
1633.00	617.12
1634.00	598.40
1635.00	621.02
1636.00	635.07
1637.00	633.50
1638.00	619.46
1639.00	609.32
1640.00	614.00
1641.00	645.99
1642.00	677.98
1643.00	716.98
1644.00	806.70
1645.00	1374.67
1646.00	3462.43
1647.00	8185.63
1648.00	16063.10
1649.00	25451.77
1650.00	32793.25
1651.00	35093.99
1652.00	32238.54
1653.00	26191.37
1654.00	18991.89
1655.00	12208.23
1656.00	7021.61
1657.00	3873.59
1658.00	2212.59
1659.00	1362.19
1660.00	1015.01
1661.00	824.65
1662.00	769.26
1663.00	866.00
1664.00	1473.76
1665.00	2887.44
1666.00	5394.15
1667.00	8478.20
1668.00	11124.57
1669.00	12195.75
1670.00	11559.13
1671.00	9733.51
1672.00	7409.36
1673.00	5096.91
1674.00	3197.17
1675.00	1935.62
1676.00	1215.52
1677.00	861.32
1678.00	656.91
1679.00	603.08
1680.00	553.93
1681.00	550.03
1682.00	529.74
1683.00	545.34
1684.00	538.32
1685.00	528.18
1686.00	500.09
1687.00	493.07
1688.00	478.25
1689.00	491.51
1690.00	518.82
1691.00	528.18
1692.00	496.97
1693.00	501.65
1694.00	494.63
1695.00	524.28
1696.00	521.94
1697.00	553.93
1698.00	567.19
1699.00	574.99
1700.00	560.17
1701.00	536.76
1702.00	537.54
1703.00	564.07
1704.00	601.52
1705.00	609.32
1706.00	583.57
1707.00	571.87
1708.00	585.13
1709.00	870.68
1710.00	1857.61
1711.00	4045.23
1712.00	7673.06
1713.00	12035.03
1714.00	15593.43
1715.00	16968.88
1716.00	15883.66
1717.00	13296.58
1718.00	10044.02
1719.00	6869.47
1720.00	4252.75
1721.00	2530.12
1722.00	1577.52
1723.00	1100.05
1724.00	830.11
1725.00	713.86
1726.00	651.45
1727.00	616.34
1728.00	599.96
1729.00	558.61
1730.00	551.59
1731.00	539.88
1732.00	525.06
1733.00	504.78
1734.00	477.47
1735.00	486.83
1736.00	475.91
1737.00	486.83
1738.00	505.56
1739.00	531.30
1740.00	538.32
1741.00	493.85
1742.00	487.61
1743.00	466.55
1744.00	482.15
1745.00	490.73
1746.00	524.28
1747.00	540.66
1748.00	547.69
1749.00	530.52
1750.00	540.66
1751.00	523.50
1752.00	535.98
1753.00	530.52
1754.00	574.99
1755.00	574.21
1756.00	586.69
1757.00	579.67
1758.00	610.10
1759.00	635.07
1760.00	620.24
1761.00	628.82
1762.00	680.32
1763.00	749.75
1764.00	855.86
1765.00	1507.30
1766.00	3685.56
1767.00	8010.09
1768.00	15023.12
1769.00	22794.48
1770.00	28877.53
1771.00	30426.18
1772.00	27967.84
1773.00	22796.82
1774.00	16748.09
1775.00	11015.34
1776.00	6577.69
1777.00	3805.71
1778.00	2212.59
1779.00	1396.52
1780.00	974.44
1781.00	793.44
1782.00	705.28
1783.00	692.80
1784.00	660.81
1785.00	645.21
1786.00	606.98
1787.00	581.23
1788.00	549.25
1789.00	582.01
1790.00	616.34
1791.00	688.12
1792.00	823.87
1793.00	1597.81
1794.00	3511.58
1795.00	6897.56
1796.00	11568.49
1797.00	16063.10
1798.00	18767.98
1799.00	18562.79
1800.00	16098.20
1801.00	12555.41
1802.00	8850.35
1803.00	5731.19
1804.00	3447.61
1805.00	2090.88
1806.00	1282.61
1807.00	886.28
1808.00	692.02
1809.00	614.78
1810.00	599.18
1811.00	575.77
1812.00	578.89
1813.00	557.05
1814.00	551.59
1815.00	532.08
1816.00	518.04
1817.00	515.70
1818.00	518.04
1819.00	511.80
1820.00	541.44
1821.00	606.98
1822.00	653.01
1823.00	701.38
1824.00	692.80
1825.00	696.70
1826.00	663.93
1827.00	619.46
1828.00	582.01
1829.00	537.54
1830.00	497.75
1831.00	475.13
1832.00	450.16
1833.00	465.77
1834.00	482.15
1835.00	474.35
1836.00	472.01
1837.00	439.24
1838.00	478.25
1839.00	457.96
1840.00	458.75
1841.00	418.18
1842.00	436.12
1843.00	444.70
1844.00	456.40
1845.00	433.00
1846.00	442.36
1847.00	444.70
1848.00	440.02
1849.00	428.32
1850.00	428.32
1851.00	404.91
1852.00	401.79
1853.00	394.77
1854.00	440.02
1855.00	434.56
1856.00	440.02
1857.00	419.74
1858.00	411.15
1859.00	403.35
1860.00	421.30
1861.00	442.36
1862.00	448.60
1863.00	448.60
1864.00	455.62
1865.00	468.11
1866.00	466.55
1867.00	461.09
1868.00	440.80
1869.00	453.28
1870.00	474.35
1871.00	483.71
1872.00	492.29
1873.00	472.01
1874.00	461.87
1875.00	451.72
1876.00	457.18
1877.00	464.21
1878.00	429.10
1879.00	413.49
1880.00	411.93
1881.00	415.06
1882.00	438.46
1883.00	454.84
1884.00	495.41
1885.00	487.61
1886.00	482.93
1887.00	455.62
1888.00	433.78
1889.00	433.78
1890.00	464.21
1891.00	479.03
1892.00	468.11
1893.00	434.56
1894.00	447.04
1895.00	464.99
1896.00	482.93
1897.00	456.40
1898.00	430.66
1899.00	432.22
1900.00	458.74
1901.00	471.23
1902.00	440.02
1903.00	430.66
1904.00	427.54
1905.00	472.01
1906.00	498.53
1907.00	521.16
1908.00	540.66
1909.00	568.75
1910.00	592.16
1911.00	574.21
1912.00	543.78
1913.00	524.28
1914.00	531.30
1915.00	518.82
1916.00	488.39
1917.00	461.09
1918.00	447.04
1919.00	463.43
1920.00	461.87
1921.00	467.33
1922.00	473.57
1923.00	490.73
1924.00	488.39
1925.00	484.49
1926.00	484.49
1927.00	478.25
1928.00	457.18
1929.00	447.82
1930.00	443.14
1931.00	455.62
1932.00	462.65
1933.00	454.06
1934.00	454.06
1935.00	450.94
1936.00	476.69
1937.00	480.59
1938.00	484.49
1939.00	486.05
1940.00	494.63
1941.00	511.02
1942.00	514.14
1943.00	535.98
1944.00	551.59
1945.00	596.84
1946.00	660.81
1947.00	991.61
1948.00	2032.37
1949.00	3972.67
1950.00	7015.37
1951.00	10562.06
1952.00	13487.73
1953.00	14493.38
1954.00	13598.51
1955.00	11602.04
1956.00	9224.83
1957.00	6812.52
1958.00	4671.71
1959.00	3114.47
1960.00	2037.05
1961.00	1373.11
1962.00	1007.99
1963.00	830.89
1964.00	709.18
1965.00	612.44
1966.00	551.59
1967.00	541.44
1968.00	550.03
1969.00	527.40
1970.00	503.22
1971.00	463.43
1972.00	451.72
1973.00	470.45
1974.00	544.56
1975.00	627.26
1976.00	755.99
1977.00	936.99
1978.00	1151.54
1979.00	1271.69
1980.00	1295.10
1981.00	1230.34
1982.00	1121.90
1983.00	959.62
1984.00	835.57
1985.00	727.13
1986.00	656.91
1987.00	616.34
1988.00	568.75
1989.00	532.86
1990.00	468.11
1991.00	461.09
1992.00	439.24
1993.00	461.09
1994.00	457.18
1995.00	477.47
1996.00	451.72
1997.00	425.98
1998.00	447.04
1999.00	441.58
2000.00	479.03
2001.00	451.72
2002.00	497.75
2003.00	505.56
2004.00	501.65
2005.00	493.07
2006.00	470.45
2007.00	487.61
2008.00	500.09
2009.00	535.20
2010.00	548.47
2011.00	527.40
2012.00	513.36
2013.00	513.36
2014.00	526.62
2015.00	529.74
2016.00	538.32
2017.00	541.44
2018.00	578.89
2019.00	645.99
2020.00	788.76
2021.00	951.04
2022.00	1160.13
2023.00	1368.43
2024.00	1910.66
2025.00	3509.24
2026.00	6704.85
2027.00	11977.30
2028.00	18695.42
2029.00	25210.69
2030.00	29569.55
2031.00	30217.10
2032.00	28130.12
2033.00	23876.59
2034.00	18945.86
2035.00	13813.84
2036.00	9509.60
2037.00	6264.83
2038.00	3989.05
2039.00	2510.61
2040.00	1618.09
2041.00	1155.44
2042.00	901.11
2043.00	773.94
2044.00	710.74
2045.00	661.59
2046.00	635.07
2047.00	610.88
>>>>>End Processed Spectral Data<<<<<
