SpectraSuite Data File
++++++++++++++++++++++++++++++++++++
Date: Thu Nov 16 13:55:19 EST 2017
User: cheriyan
Dark Spectrum Present: No
Reference Spectrum Present: No
Number of Sampled Component Spectra: 1
Spectrometers: USB2+H05261
Integration Time (usec): 100000 (USB2+H05261)
Spectra Averaged: 1 (USB2+H05261)
Boxcar Smoothing: 1 (USB2+H05261)
Correct for Electrical Dark: No (USB2+H05261)
Strobe/Lamp Enabled: No (USB2+H05261)
Correct for Detector Non-linearity: No (USB2+H05261)
Correct for Stray Light: No (USB2+H05261)
Number of Pixels in Processed Spectrum: 2048
>>>>>Begin Processed Spectral Data<<<<<
0.00	332.36
1.00	332.36
2.00	302.71
3.00	276.18
4.00	252.00
5.00	270.72
6.00	250.44
7.00	252.00
8.00	221.57
9.00	244.98
10.00	230.15
11.00	228.59
12.00	211.43
13.00	190.36
14.00	197.39
15.00	213.77
16.00	248.88
17.00	255.90
18.00	272.28
19.00	283.20
20.00	284.77
21.00	271.50
22.00	268.38
23.00	269.94
24.00	321.43
25.00	333.92
26.00	367.46
27.00	362.78
28.00	362.00
29.00	389.31
30.00	369.80
31.00	364.34
32.00	351.86
33.00	363.56
34.00	404.13
35.00	424.42
36.00	424.42
37.00	415.84
38.00	395.55
39.00	399.45
40.00	385.41
41.00	394.77
42.00	403.35
43.00	405.69
44.00	408.03
45.00	406.47
46.00	414.27
47.00	400.23
48.00	410.37
49.00	432.22
50.00	449.38
51.00	433.78
52.00	420.52
53.00	414.27
54.00	452.50
55.00	437.68
56.00	441.58
57.00	428.32
58.00	447.04
59.00	444.70
60.00	437.68
61.00	425.20
62.00	403.35
63.00	383.85
64.00	402.57
65.00	411.93
66.00	425.20
67.00	427.54
68.00	433.78
69.00	434.56
70.00	409.59
71.00	396.33
72.00	377.61
73.00	365.90
74.00	362.78
75.00	386.19
76.00	385.41
77.00	406.47
78.00	392.43
79.00	429.10
80.00	407.25
81.00	422.08
82.00	406.47
83.00	418.18
84.00	404.91
85.00	414.27
86.00	411.15
87.00	443.14
88.00	433.00
89.00	429.10
90.00	377.61
91.00	402.57
92.00	422.08
93.00	448.60
94.00	417.40
95.00	401.79
96.00	379.95
97.00	376.05
98.00	371.36
99.00	389.31
100.00	421.30
101.00	450.16
102.00	472.01
103.00	463.43
104.00	455.62
105.00	437.68
106.00	427.54
107.00	428.32
108.00	423.64
109.00	411.15
110.00	388.53
111.00	372.93
112.00	383.85
113.00	386.19
114.00	375.27
115.00	374.49
116.00	408.03
117.00	424.42
118.00	429.88
119.00	411.93
120.00	393.99
121.00	397.89
122.00	390.09
123.00	417.40
124.00	426.76
125.00	431.44
126.00	438.46
127.00	426.76
128.00	454.06
129.00	432.22
130.00	417.40
131.00	399.45
132.00	410.37
133.00	414.27
134.00	372.93
135.00	379.95
136.00	381.51
137.00	411.93
138.00	384.63
139.00	401.01
140.00	386.19
141.00	408.03
142.00	404.91
143.00	418.18
144.00	449.38
145.00	470.45
146.00	492.29
147.00	510.24
148.00	501.65
149.00	489.95
150.00	439.24
151.00	407.25
152.00	394.77
153.00	390.09
154.00	434.56
155.00	428.32
156.00	429.88
157.00	386.97
158.00	387.75
159.00	374.49
160.00	381.51
161.00	374.49
162.00	404.13
163.00	394.77
164.00	408.81
165.00	388.53
166.00	401.79
167.00	405.69
168.00	427.54
169.00	428.32
170.00	415.06
171.00	379.95
172.00	374.49
173.00	392.43
174.00	415.84
175.00	411.93
176.00	404.13
177.00	384.63
178.00	390.09
179.00	384.63
180.00	415.84
181.00	412.71
182.00	416.62
183.00	399.45
184.00	406.47
185.00	403.35
186.00	411.93
187.00	418.18
188.00	421.30
189.00	416.62
190.00	385.41
191.00	372.15
192.00	362.78
193.00	410.37
194.00	461.87
195.00	504.78
196.00	514.14
197.00	515.70
198.00	495.41
199.00	455.62
200.00	440.02
201.00	441.58
202.00	434.56
203.00	433.78
204.00	417.40
205.00	431.44
206.00	399.45
207.00	390.09
208.00	369.02
209.00	380.73
210.00	411.15
211.00	459.53
212.00	440.02
213.00	423.64
214.00	401.79
215.00	419.74
216.00	404.91
217.00	390.87
218.00	398.67
219.00	411.93
220.00	412.71
221.00	408.81
222.00	425.20
223.00	459.53
224.00	462.65
225.00	450.94
226.00	418.18
227.00	405.69
228.00	415.06
229.00	418.18
230.00	411.15
231.00	389.31
232.00	389.31
233.00	419.74
234.00	436.12
235.00	436.90
236.00	420.52
237.00	413.49
238.00	418.96
239.00	437.68
240.00	434.56
241.00	441.58
242.00	416.62
243.00	410.37
244.00	422.86
245.00	447.04
246.00	453.28
247.00	439.24
248.00	427.54
249.00	412.71
250.00	408.81
251.00	431.44
252.00	443.92
253.00	435.34
254.00	426.76
255.00	476.69
256.00	481.37
257.00	489.17
258.00	459.53
259.00	482.15
260.00	465.77
261.00	455.62
262.00	432.22
263.00	452.50
264.00	461.09
265.00	490.73
266.00	468.11
267.00	490.73
268.00	516.48
269.00	544.56
270.00	535.20
271.00	537.54
272.00	579.67
273.00	616.34
274.00	625.70
275.00	597.62
276.00	589.03
277.00	553.15
278.00	532.86
279.00	493.07
280.00	504.00
281.00	473.57
282.00	464.21
283.00	447.82
284.00	432.22
285.00	439.24
286.00	420.52
287.00	442.36
288.00	443.92
289.00	440.02
290.00	445.48
291.00	407.25
292.00	399.45
293.00	391.65
294.00	404.91
295.00	377.61
296.00	371.36
297.00	392.43
298.00	424.42
299.00	413.49
300.00	379.17
301.00	376.83
302.00	379.95
303.00	407.25
304.00	398.67
305.00	425.98
306.00	460.31
307.00	545.34
308.00	609.32
309.00	654.57
310.00	620.24
311.00	567.19
312.00	492.29
313.00	464.99
314.00	439.24
315.00	436.90
316.00	442.36
317.00	466.55
318.00	490.73
319.00	479.03
320.00	454.06
321.00	415.06
322.00	398.67
323.00	388.53
324.00	402.57
325.00	406.47
326.00	435.34
327.00	433.78
328.00	460.31
329.00	430.66
330.00	433.00
331.00	429.10
332.00	457.96
333.00	433.78
334.00	411.15
335.00	395.55
336.00	383.07
337.00	390.87
338.00	396.33
339.00	386.19
340.00	388.53
341.00	371.36
342.00	416.62
343.00	394.77
344.00	410.37
345.00	428.32
346.00	504.78
347.00	587.47
348.00	690.46
349.00	731.03
350.00	704.50
351.00	599.96
352.00	549.25
353.00	535.20
354.00	555.49
355.00	533.64
356.00	500.87
357.00	476.69
358.00	453.28
359.00	431.44
360.00	446.26
361.00	468.11
362.00	475.91
363.00	424.42
364.00	397.11
365.00	399.45
366.00	427.54
367.00	429.88
368.00	460.31
369.00	444.70
370.00	436.90
371.00	383.85
372.00	397.11
373.00	404.91
374.00	426.76
375.00	399.45
376.00	401.01
377.00	413.49
378.00	424.42
379.00	440.02
380.00	426.76
381.00	434.56
382.00	433.00
383.00	418.96
384.00	429.88
385.00	418.96
386.00	440.02
387.00	429.88
388.00	440.02
389.00	446.26
390.00	457.96
391.00	453.28
392.00	468.11
393.00	458.75
394.00	449.38
395.00	395.55
396.00	407.25
397.00	418.96
398.00	448.60
399.00	440.80
400.00	426.76
401.00	429.10
402.00	442.36
403.00	450.16
404.00	454.06
405.00	437.68
406.00	429.10
407.00	407.25
408.00	408.81
409.00	411.93
410.00	393.99
411.00	384.63
412.00	377.61
413.00	411.93
414.00	411.15
415.00	411.93
416.00	411.93
417.00	435.34
418.00	451.72
419.00	427.54
420.00	425.98
421.00	397.11
422.00	408.03
423.00	398.67
424.00	427.54
425.00	447.04
426.00	445.48
427.00	425.20
428.00	425.20
429.00	398.67
430.00	418.18
431.00	404.13
432.00	405.69
433.00	401.79
434.00	415.84
435.00	438.46
436.00	424.42
437.00	439.24
438.00	436.90
439.00	441.58
440.00	408.03
441.00	440.02
442.00	454.06
443.00	485.27
444.00	486.83
445.00	469.67
446.00	448.60
447.00	428.32
448.00	437.68
449.00	437.68
450.00	427.54
451.00	449.38
452.00	436.12
453.00	420.52
454.00	408.81
455.00	440.02
456.00	473.57
457.00	452.50
458.00	440.02
459.00	415.84
460.00	423.64
461.00	420.52
462.00	410.37
463.00	406.47
464.00	405.69
465.00	404.91
466.00	437.68
467.00	436.12
468.00	468.89
469.00	411.15
470.00	406.47
471.00	411.93
472.00	443.14
473.00	452.50
474.00	449.38
475.00	473.57
476.00	461.87
477.00	457.96
478.00	437.68
479.00	460.31
480.00	472.01
481.00	463.43
482.00	436.12
483.00	391.65
484.00	387.75
485.00	385.41
486.00	387.75
487.00	400.23
488.00	422.86
489.00	460.31
490.00	440.80
491.00	429.10
492.00	403.35
493.00	433.00
494.00	459.53
495.00	454.84
496.00	440.80
497.00	397.11
498.00	412.71
499.00	426.76
500.00	436.12
501.00	450.94
502.00	436.12
503.00	446.26
504.00	427.54
505.00	422.08
506.00	436.90
507.00	421.30
508.00	429.10
509.00	397.11
510.00	379.95
511.00	374.49
512.00	386.97
513.00	424.42
514.00	443.14
515.00	473.57
516.00	454.84
517.00	476.69
518.00	441.58
519.00	441.58
520.00	398.67
521.00	397.11
522.00	402.57
523.00	431.44
524.00	448.60
525.00	464.21
526.00	431.44
527.00	433.78
528.00	432.22
529.00	417.40
530.00	399.45
531.00	399.45
532.00	450.94
533.00	464.21
534.00	446.26
535.00	424.42
536.00	416.62
537.00	447.82
538.00	459.53
539.00	482.93
540.00	468.11
541.00	457.96
542.00	421.30
543.00	406.47
544.00	409.59
545.00	426.76
546.00	438.46
547.00	434.56
548.00	448.60
549.00	451.72
550.00	443.14
551.00	449.38
552.00	436.90
553.00	438.46
554.00	413.49
555.00	436.12
556.00	440.80
557.00	452.50
558.00	420.52
559.00	401.01
560.00	375.27
561.00	406.47
562.00	396.33
563.00	417.40
564.00	392.43
565.00	418.18
566.00	428.32
567.00	432.22
568.00	420.52
569.00	391.65
570.00	413.49
571.00	411.15
572.00	430.66
573.00	405.69
574.00	442.36
575.00	439.24
576.00	439.24
577.00	434.56
578.00	440.02
579.00	443.92
580.00	428.32
581.00	406.47
582.00	433.00
583.00	430.66
584.00	450.16
585.00	447.04
586.00	449.38
587.00	424.42
588.00	396.33
589.00	413.49
590.00	435.34
591.00	455.62
592.00	442.36
593.00	442.36
594.00	449.38
595.00	425.98
596.00	411.93
597.00	379.17
598.00	392.43
599.00	422.86
600.00	449.38
601.00	454.06
602.00	429.88
603.00	411.93
604.00	431.44
605.00	439.24
606.00	440.02
607.00	388.53
608.00	381.51
609.00	379.95
610.00	413.49
611.00	428.32
612.00	421.30
613.00	424.42
614.00	398.67
615.00	408.03
616.00	403.35
617.00	415.84
618.00	433.00
619.00	438.46
620.00	436.12
621.00	418.96
622.00	416.62
623.00	415.84
624.00	393.99
625.00	393.99
626.00	402.57
627.00	428.32
628.00	425.20
629.00	442.36
630.00	425.20
631.00	418.96
632.00	378.39
633.00	392.43
634.00	395.55
635.00	419.74
636.00	436.90
637.00	460.31
638.00	443.92
639.00	443.14
640.00	411.15
641.00	421.30
642.00	433.00
643.00	446.26
644.00	454.84
645.00	445.48
646.00	450.94
647.00	452.50
648.00	432.22
649.00	438.46
650.00	440.80
651.00	440.02
652.00	436.12
653.00	423.64
654.00	477.47
655.00	500.09
656.00	512.58
657.00	448.60
658.00	419.74
659.00	395.55
660.00	379.95
661.00	368.24
662.00	390.09
663.00	392.43
664.00	390.87
665.00	383.07
666.00	401.01
667.00	432.22
668.00	443.92
669.00	463.43
670.00	431.44
671.00	407.25
672.00	382.29
673.00	384.63
674.00	383.07
675.00	383.85
676.00	373.71
677.00	369.02
678.00	376.05
679.00	400.23
680.00	424.42
681.00	439.24
682.00	435.34
683.00	448.60
684.00	447.04
685.00	429.88
686.00	393.99
687.00	376.83
688.00	392.43
689.00	416.62
690.00	436.90
691.00	440.02
692.00	428.32
693.00	420.52
694.00	414.27
695.00	415.84
696.00	422.86
697.00	425.98
698.00	443.14
699.00	452.50
700.00	433.78
701.00	436.12
702.00	418.18
703.00	438.46
704.00	414.27
705.00	408.03
706.00	410.37
707.00	429.88
708.00	446.26
709.00	450.94
710.00	432.22
711.00	418.18
712.00	390.87
713.00	404.13
714.00	424.42
715.00	466.55
716.00	483.71
717.00	475.13
718.00	511.80
719.00	495.41
720.00	501.65
721.00	434.56
722.00	435.34
723.00	432.22
724.00	463.43
725.00	461.09
726.00	418.18
727.00	391.65
728.00	391.65
729.00	433.78
730.00	441.58
731.00	416.62
732.00	418.18
733.00	445.48
734.00	493.85
735.00	532.08
736.00	539.10
737.00	538.32
738.00	514.92
739.00	478.25
740.00	453.28
741.00	437.68
742.00	421.30
743.00	458.75
744.00	454.84
745.00	489.17
746.00	470.45
747.00	479.81
748.00	454.84
749.00	451.72
750.00	420.52
751.00	410.37
752.00	383.07
753.00	411.93
754.00	416.62
755.00	436.12
756.00	435.34
757.00	465.77
758.00	464.21
759.00	482.93
760.00	496.97
761.00	521.94
762.00	504.00
763.00	493.85
764.00	463.43
765.00	452.50
766.00	444.70
767.00	439.24
768.00	440.02
769.00	421.30
770.00	419.74
771.00	424.42
772.00	424.42
773.00	454.84
774.00	452.50
775.00	468.11
776.00	433.78
777.00	436.12
778.00	443.14
779.00	490.73
780.00	525.06
781.00	557.83
782.00	553.93
783.00	631.16
784.00	589.82
785.00	572.65
786.00	440.02
787.00	423.64
788.00	419.74
789.00	436.12
790.00	450.16
791.00	408.81
792.00	408.81
793.00	388.53
794.00	438.46
795.00	424.42
796.00	443.14
797.00	433.78
798.00	489.17
799.00	489.17
800.00	464.99
801.00	410.37
802.00	411.93
803.00	440.02
804.00	433.00
805.00	423.64
806.00	450.94
807.00	495.41
808.00	498.53
809.00	457.18
810.00	449.38
811.00	443.14
812.00	435.34
813.00	423.64
814.00	437.68
815.00	430.66
816.00	424.42
817.00	390.09
818.00	401.01
819.00	389.31
820.00	447.04
821.00	493.07
822.00	533.64
823.00	520.38
824.00	497.75
825.00	495.41
826.00	479.81
827.00	495.41
828.00	479.81
829.00	502.43
830.00	497.75
831.00	485.27
832.00	482.93
833.00	446.26
834.00	481.37
835.00	487.61
836.00	493.07
837.00	486.05
838.00	465.77
839.00	449.38
840.00	441.58
841.00	450.94
842.00	507.12
843.00	473.57
844.00	471.23
845.00	429.88
846.00	420.52
847.00	394.77
848.00	402.57
849.00	430.66
850.00	433.78
851.00	433.78
852.00	425.98
853.00	440.02
854.00	426.76
855.00	433.78
856.00	431.44
857.00	445.48
858.00	432.22
859.00	412.71
860.00	431.44
861.00	457.96
862.00	478.25
863.00	461.87
864.00	448.60
865.00	447.04
866.00	434.56
867.00	440.80
868.00	429.88
869.00	423.64
870.00	391.65
871.00	385.41
872.00	379.17
873.00	409.59
874.00	422.08
875.00	434.56
876.00	460.31
877.00	468.11
878.00	488.39
879.00	458.75
880.00	473.57
881.00	464.21
882.00	475.91
883.00	472.79
884.00	468.11
885.00	455.62
886.00	447.04
887.00	443.14
888.00	439.24
889.00	452.50
890.00	450.16
891.00	455.62
892.00	441.58
893.00	460.31
894.00	454.84
895.00	468.89
896.00	470.45
897.00	477.47
898.00	453.28
899.00	443.92
900.00	447.82
901.00	455.62
902.00	475.91
903.00	543.00
904.00	649.89
905.00	765.36
906.00	806.70
907.00	794.22
908.00	706.84
909.00	961.18
910.00	992.39
911.00	1095.37
912.00	911.25
913.00	920.61
914.00	886.28
915.00	786.42
916.00	692.02
917.00	594.50
918.00	528.96
919.00	471.23
920.00	447.04
921.00	459.53
922.00	472.01
923.00	482.93
924.00	497.75
925.00	491.51
926.00	477.47
927.00	418.18
928.00	438.46
929.00	449.38
930.00	457.96
931.00	462.65
932.00	429.88
933.00	433.78
934.00	423.64
935.00	451.72
936.00	472.01
937.00	472.79
938.00	461.09
939.00	436.12
940.00	434.56
941.00	456.40
942.00	489.95
943.00	629.60
944.00	1061.82
945.00	1914.56
946.00	2924.11
947.00	3659.04
948.00	3688.68
949.00	3155.04
950.00	2329.61
951.00	1597.81
952.00	1028.28
953.00	722.45
954.00	548.47
955.00	483.71
956.00	432.22
957.00	452.50
958.00	469.67
959.00	461.09
960.00	438.46
961.00	447.04
962.00	461.09
963.00	466.55
964.00	456.40
965.00	439.24
966.00	440.02
967.00	430.66
968.00	456.40
969.00	425.98
970.00	420.52
971.00	392.43
972.00	390.09
973.00	411.93
974.00	415.84
975.00	450.16
976.00	401.79
977.00	414.27
978.00	398.67
979.00	444.70
980.00	463.43
981.00	465.77
982.00	452.50
983.00	447.82
984.00	433.00
985.00	424.42
986.00	416.62
987.00	437.68
988.00	429.88
989.00	404.91
990.00	394.77
991.00	395.55
992.00	396.33
993.00	426.76
994.00	436.12
995.00	465.77
996.00	447.04
997.00	458.75
998.00	468.11
999.00	461.09
1000.00	445.48
1001.00	442.36
1002.00	439.24
1003.00	458.75
1004.00	473.57
1005.00	490.73
1006.00	489.95
1007.00	449.38
1008.00	435.34
1009.00	452.50
1010.00	467.33
1011.00	459.53
1012.00	461.87
1013.00	465.77
1014.00	478.25
1015.00	475.13
1016.00	459.53
1017.00	447.04
1018.00	429.88
1019.00	429.88
1020.00	429.10
1021.00	427.54
1022.00	437.68
1023.00	424.42
1024.00	420.52
1025.00	411.15
1026.00	429.88
1027.00	438.46
1028.00	447.82
1029.00	452.50
1030.00	433.00
1031.00	422.86
1032.00	418.18
1033.00	453.28
1034.00	454.84
1035.00	457.18
1036.00	447.82
1037.00	438.46
1038.00	426.76
1039.00	425.20
1040.00	463.43
1041.00	488.39
1042.00	491.51
1043.00	489.17
1044.00	510.24
1045.00	565.63
1046.00	559.39
1047.00	536.76
1048.00	483.71
1049.00	475.13
1050.00	444.70
1051.00	423.64
1052.00	404.91
1053.00	419.74
1054.00	399.45
1055.00	438.46
1056.00	454.06
1057.00	484.49
1058.00	472.01
1059.00	459.53
1060.00	457.96
1061.00	456.40
1062.00	475.13
1063.00	469.67
1064.00	442.36
1065.00	419.74
1066.00	403.35
1067.00	421.30
1068.00	443.92
1069.00	448.60
1070.00	471.23
1071.00	450.94
1072.00	449.38
1073.00	408.03
1074.00	416.62
1075.00	426.76
1076.00	434.56
1077.00	443.14
1078.00	446.26
1079.00	496.97
1080.00	475.13
1081.00	459.53
1082.00	421.30
1083.00	436.12
1084.00	456.40
1085.00	443.14
1086.00	476.69
1087.00	461.09
1088.00	474.35
1089.00	452.50
1090.00	468.11
1091.00	458.75
1092.00	440.80
1093.00	436.12
1094.00	432.22
1095.00	436.12
1096.00	458.74
1097.00	516.48
1098.00	550.03
1099.00	563.29
1100.00	563.29
1101.00	535.20
1102.00	544.56
1103.00	528.18
1104.00	559.39
1105.00	536.76
1106.00	532.08
1107.00	508.68
1108.00	491.51
1109.00	469.67
1110.00	464.21
1111.00	461.09
1112.00	459.53
1113.00	433.00
1114.00	433.78
1115.00	432.22
1116.00	450.94
1117.00	457.96
1118.00	488.39
1119.00	496.19
1120.00	528.96
1121.00	511.02
1122.00	519.60
1123.00	497.75
1124.00	511.02
1125.00	494.63
1126.00	482.15
1127.00	457.96
1128.00	461.09
1129.00	439.24
1130.00	454.84
1131.00	456.40
1132.00	466.55
1133.00	442.36
1134.00	442.36
1135.00	450.16
1136.00	476.69
1137.00	503.22
1138.00	512.58
1139.00	514.92
1140.00	474.35
1141.00	472.01
1142.00	472.01
1143.00	492.29
1144.00	477.47
1145.00	456.40
1146.00	456.40
1147.00	468.11
1148.00	473.57
1149.00	476.69
1150.00	480.59
1151.00	496.97
1152.00	486.05
1153.00	495.41
1154.00	514.92
1155.00	574.99
1156.00	656.13
1157.00	695.92
1158.00	707.62
1159.00	677.20
1160.00	660.81
1161.00	617.12
1162.00	571.09
1163.00	591.38
1164.00	740.39
1165.00	1056.36
1166.00	1430.07
1167.00	1686.75
1168.00	1701.57
1169.00	1522.13
1170.00	1281.05
1171.00	1050.12
1172.00	841.03
1173.00	696.70
1174.00	599.18
1175.00	565.63
1176.00	574.99
1177.00	610.88
1178.00	616.34
1179.00	618.68
1180.00	611.66
1181.00	603.86
1182.00	603.86
1183.00	610.88
1184.00	638.97
1185.00	645.21
1186.00	639.75
1187.00	652.23
1188.00	692.80
1189.00	733.37
1190.00	781.74
1191.00	824.65
1192.00	851.17
1193.00	869.90
1194.00	835.57
1195.00	822.31
1196.00	790.32
1197.00	767.70
1198.00	843.37
1199.00	951.04
1200.00	1203.04
1201.00	1369.99
1202.00	1511.99
1203.00	1448.79
1204.00	1405.10
1205.00	1264.67
1206.00	1208.50
1207.00	1114.10
1208.00	1105.51
1209.00	1104.73
1210.00	1143.74
1211.00	1217.86
1212.00	1333.33
1213.00	1461.27
1214.00	1645.40
1215.00	1938.74
1216.00	2509.83
1217.00	5814.67
1218.00	21202.91
1219.00	41946.30
1220.00	59864.66
1221.00	65535.00
1222.00	65535.00
1223.00	65535.00
1224.00	65535.00
1225.00	65322.01
1226.00	56395.99
1227.00	40790.08
1228.00	22204.66
1229.00	10852.28
1230.00	5540.83
1231.00	3208.87
1232.00	2232.87
1233.00	1858.39
1234.00	1669.58
1235.00	1621.99
1236.00	2073.71
1237.00	3722.23
1238.00	7053.59
1239.00	11514.66
1240.00	15291.50
1241.00	16380.63
1242.00	14673.60
1243.00	11296.21
1244.00	7749.51
1245.00	4833.99
1246.00	2776.66
1247.00	1740.58
1248.00	1203.82
1249.00	1003.31
1250.00	960.40
1251.00	1008.77
1252.00	1092.25
1253.00	1178.85
1254.00	1259.99
1255.00	1267.79
1256.00	1206.16
1257.00	1138.28
1258.00	1048.56
1259.00	1007.99
1260.00	946.36
1261.00	942.46
1262.00	935.43
1263.00	906.57
1264.00	855.86
1265.00	802.02
1266.00	766.92
1267.00	752.87
1268.00	744.29
1269.00	743.51
1270.00	763.79
1271.00	755.21
1272.00	784.86
1273.00	808.26
1274.00	905.79
1275.00	1278.71
1276.00	3045.04
1277.00	7279.07
1278.00	14644.73
1279.00	22902.92
1280.00	28500.70
1281.00	28666.88
1282.00	24420.37
1283.00	17901.20
1284.00	11677.71
1285.00	6677.55
1286.00	3659.82
1287.00	2140.81
1288.00	1352.83
1289.00	1004.87
1290.00	847.27
1291.00	873.80
1292.00	876.92
1293.00	893.30
1294.00	883.94
1295.00	1091.47
1296.00	1726.54
1297.00	2998.23
1298.00	4759.87
1299.00	6272.64
1300.00	6846.85
1301.00	6282.00
1302.00	5082.86
1303.00	3692.59
1304.00	2498.13
1305.00	1634.47
1306.00	1167.15
1307.00	952.60
1308.00	842.59
1309.00	817.63
1310.00	772.38
1311.00	727.91
1312.00	689.68
1313.00	672.51
1314.00	661.59
1315.00	653.79
1316.00	625.70
1317.00	602.30
1318.00	557.83
1319.00	538.32
1320.00	531.30
1321.00	521.94
1322.00	546.91
1323.00	577.33
1324.00	629.60
1325.00	608.54
1326.00	604.64
1327.00	585.91
1328.00	621.80
1329.00	637.41
1330.00	996.29
1331.00	1881.79
1332.00	3515.48
1333.00	5462.81
1334.00	7070.76
1335.00	7525.60
1336.00	6783.65
1337.00	5309.12
1338.00	3740.96
1339.00	2455.22
1340.00	1522.91
1341.00	1021.25
1342.00	759.11
1343.00	695.92
1344.00	654.57
1345.00	672.51
1346.00	642.87
1347.00	638.19
1348.00	622.58
1349.00	631.94
1350.00	660.03
1351.00	701.38
1352.00	714.64
1353.00	721.67
1354.00	706.06
1355.00	708.40
1356.00	747.41
1357.00	853.52
1358.00	1440.99
1359.00	3552.93
1360.00	7731.57
1361.00	14198.47
1362.00	20307.27
1363.00	23794.67
1364.00	22695.39
1365.00	18821.03
1366.00	13574.33
1367.00	8953.33
1368.00	5209.25
1369.00	3016.17
1370.00	1902.86
1371.00	1514.33
1372.00	2200.10
1373.00	5456.57
1374.00	12816.77
1375.00	24215.96
1376.00	35594.09
1377.00	42158.51
1378.00	40974.20
1379.00	34431.62
1380.00	25050.75
1381.00	16252.68
1382.00	9116.39
1383.00	4880.80
1384.00	2695.52
1385.00	1663.34
1386.00	1174.17
1387.00	982.24
1388.00	906.57
1389.00	881.60
1390.00	863.66
1391.00	823.87
1392.00	815.29
1393.00	781.74
1394.00	881.60
1395.00	1074.31
1396.00	1415.24
1397.00	1668.02
1398.00	1856.04
1399.00	1864.63
1400.00	1817.04
1401.00	1703.13
1402.00	2217.27
1403.00	5632.11
1404.00	14759.42
1405.00	30503.42
1406.00	46442.47
1407.00	57021.69
1408.00	58904.26
1409.00	54463.49
1410.00	44683.17
1411.00	31555.88
1412.00	18953.66
1413.00	10001.89
1414.00	5294.29
1415.00	3037.24
1416.00	2498.13
1417.00	3580.24
1418.00	6596.41
1419.00	11145.63
1420.00	15466.26
1421.00	17465.86
1422.00	16379.85
1423.00	13321.55
1424.00	9667.97
1425.00	6320.23
1426.00	3777.62
1427.00	2253.16
1428.00	1499.50
1429.00	1099.27
1430.00	882.38
1431.00	826.21
1432.00	787.98
1433.00	805.14
1434.00	803.58
1435.00	780.18
1436.00	735.71
1437.00	701.38
1438.00	708.40
1439.00	685.00
1440.00	642.87
1441.00	591.38
1442.00	604.64
1443.00	628.04
1444.00	637.41
1445.00	626.48
1446.00	613.22
1447.00	635.07
1448.00	681.88
1449.00	718.54
1450.00	748.19
1451.00	1018.91
1452.00	1883.35
1453.00	3678.54
1454.00	6282.00
1455.00	8749.70
1456.00	10154.02
1457.00	9854.44
1458.00	8503.17
1459.00	6409.17
1460.00	4444.68
1461.00	2728.28
1462.00	1704.69
1463.00	1112.53
1464.00	848.05
1465.00	745.07
1466.00	694.36
1467.00	667.05
1468.00	642.87
1469.00	636.63
1470.00	624.92
1471.00	606.20
1472.00	599.18
1473.00	610.88
1474.00	622.58
1475.00	647.55
1476.00	667.05
1477.00	676.41
1478.00	692.80
1479.00	671.73
1480.00	694.36
1481.00	713.08
1482.00	810.61
1483.00	1205.38
1484.00	3060.64
1485.00	7595.82
1486.00	15832.94
1487.00	25809.09
1488.00	33529.73
1489.00	35521.53
1490.00	31832.85
1491.00	25046.85
1492.00	17401.10
1493.00	10748.52
1494.00	5891.91
1495.00	3254.12
1496.00	1888.81
1497.00	1242.04
1498.00	916.71
1499.00	768.48
1500.00	702.16
1501.00	644.43
1502.00	610.88
1503.00	594.50
1504.00	641.31
1505.00	660.81
1506.00	674.85
1507.00	659.25
1508.00	673.29
1509.00	929.97
1510.00	1704.69
1511.00	3257.25
1512.00	5475.29
1513.00	7508.44
1514.00	8655.30
1515.00	8353.37
1516.00	7179.98
1517.00	5469.05
1518.00	3821.31
1519.00	2453.66
1520.00	1579.86
1521.00	1128.14
1522.00	901.89
1523.00	785.64
1524.00	722.45
1525.00	700.60
1526.00	739.61
1527.00	819.97
1528.00	1035.30
1529.00	2037.05
1530.00	4600.71
1531.00	9312.99
1532.00	15696.41
1533.00	21296.53
1534.00	23608.20
1535.00	21969.83
1536.00	17930.06
1537.00	13071.11
1538.00	8515.65
1539.00	4928.39
1540.00	2818.79
1541.00	1702.35
1542.00	1153.10
1543.00	881.60
1544.00	766.92
1545.00	703.72
1546.00	699.04
1547.00	702.94
1548.00	700.60
1549.00	688.12
1550.00	685.78
1551.00	712.30
1552.00	748.97
1553.00	760.67
1554.00	755.99
1555.00	755.21
1556.00	770.82
1557.00	779.40
1558.00	793.44
1559.00	832.45
1560.00	952.60
1561.00	1710.15
1562.00	4638.16
1563.00	11109.74
1564.00	21768.54
1565.00	33553.92
1566.00	42104.68
1567.00	43605.74
1568.00	39049.50
1569.00	30750.74
1570.00	21615.63
1571.00	13350.42
1572.00	7512.34
1573.00	4339.35
1574.00	3837.70
1575.00	7677.74
1576.00	17375.36
1577.00	32989.07
1578.00	47652.53
1579.00	57054.46
1580.00	58255.15
1581.00	54273.90
1582.00	45126.31
1583.00	32804.17
1584.00	20237.83
1585.00	11153.43
1586.00	5895.03
1587.00	3272.07
1588.00	1939.52
1589.00	1350.49
1590.00	1063.38
1591.00	930.75
1592.00	858.20
1593.00	774.72
1594.00	727.13
1595.00	692.80
1596.00	716.20
1597.00	710.74
1598.00	685.78
1599.00	640.53
1600.00	598.40
1601.00	574.21
1602.00	578.11
1603.00	589.03
1604.00	599.96
1605.00	603.86
1606.00	600.74
1607.00	609.32
1608.00	574.21
1609.00	551.59
1610.00	539.10
1611.00	550.81
1612.00	550.03
1613.00	599.18
1614.00	603.08
1615.00	616.34
1616.00	575.77
1617.00	572.65
1618.00	582.01
1619.00	588.25
1620.00	589.82
1621.00	577.33
1622.00	565.63
1623.00	570.31
1624.00	584.35
1625.00	601.52
1626.00	606.20
1627.00	577.33
1628.00	575.77
1629.00	582.01
1630.00	596.06
1631.00	597.62
1632.00	596.06
1633.00	599.96
1634.00	595.28
1635.00	586.69
1636.00	594.50
1637.00	577.33
1638.00	608.54
1639.00	638.97
1640.00	678.76
1641.00	685.00
1642.00	697.48
1643.00	731.81
1644.00	795.78
1645.00	1323.18
1646.00	3442.15
1647.00	8157.55
1648.00	15945.29
1649.00	25247.36
1650.00	32462.45
1651.00	34836.53
1652.00	31949.09
1653.00	26135.98
1654.00	18996.57
1655.00	12316.68
1656.00	7087.92
1657.00	3982.81
1658.00	2314.79
1659.00	1458.93
1660.00	1018.13
1661.00	832.45
1662.00	780.96
1663.00	888.62
1664.00	1470.64
1665.00	2861.70
1666.00	5301.31
1667.00	8351.03
1668.00	11023.92
1669.00	12183.27
1670.00	11532.60
1671.00	9671.87
1672.00	7321.20
1673.00	5038.39
1674.00	3124.62
1675.00	1891.93
1676.00	1224.88
1677.00	875.36
1678.00	692.80
1679.00	591.38
1680.00	599.18
1681.00	607.76
1682.00	596.84
1683.00	539.10
1684.00	521.94
1685.00	554.71
1686.00	566.41
1687.00	543.00
1688.00	515.70
1689.00	535.20
1690.00	561.73
1691.00	575.77
1692.00	534.42
1693.00	529.74
1694.00	508.68
1695.00	521.16
1696.00	520.38
1697.00	522.72
1698.00	525.84
1699.00	510.24
1700.00	497.75
1701.00	510.24
1702.00	518.04
1703.00	548.47
1704.00	521.94
1705.00	526.62
1706.00	553.15
1707.00	593.72
1708.00	649.89
1709.00	901.11
1710.00	1898.17
1711.00	4116.22
1712.00	7734.69
1713.00	12215.26
1714.00	15805.64
1715.00	17201.38
1716.00	16091.96
1717.00	13453.40
1718.00	10121.26
1719.00	6830.46
1720.00	4198.14
1721.00	2496.57
1722.00	1529.15
1723.00	1001.75
1724.00	787.98
1725.00	667.83
1726.00	638.97
1727.00	551.59
1728.00	520.38
1729.00	493.85
1730.00	512.58
1731.00	520.38
1732.00	500.87
1733.00	489.95
1734.00	504.00
1735.00	500.09
1736.00	485.27
1737.00	456.40
1738.00	449.38
1739.00	465.77
1740.00	486.83
1741.00	514.92
1742.00	500.09
1743.00	475.91
1744.00	466.55
1745.00	475.91
1746.00	504.00
1747.00	499.31
1748.00	527.40
1749.00	531.30
1750.00	569.53
1751.00	591.38
1752.00	603.08
1753.00	601.52
1754.00	592.16
1755.00	601.52
1756.00	579.67
1757.00	575.77
1758.00	555.49
1759.00	558.61
1760.00	584.35
1761.00	623.36
1762.00	642.09
1763.00	687.34
1764.00	784.86
1765.00	1493.26
1766.00	3723.01
1767.00	8094.35
1768.00	14955.24
1769.00	22624.40
1770.00	28785.47
1771.00	30494.06
1772.00	28041.96
1773.00	22692.27
1774.00	16682.56
1775.00	10952.15
1776.00	6578.47
1777.00	3756.56
1778.00	2228.19
1779.00	1398.08
1780.00	996.29
1781.00	746.63
1782.00	643.65
1783.00	609.32
1784.00	604.64
1785.00	621.02
1786.00	589.82
1787.00	580.45
1788.00	571.09
1789.00	587.47
1790.00	610.10
1791.00	661.59
1792.00	830.11
1793.00	1590.78
1794.00	3435.91
1795.00	6839.05
1796.00	11556.79
1797.00	16015.51
1798.00	18611.16
1799.00	18302.21
1800.00	15951.53
1801.00	12452.43
1802.00	8872.97
1803.00	5712.47
1804.00	3471.01
1805.00	2045.63
1806.00	1306.02
1807.00	906.57
1808.00	736.49
1809.00	630.38
1810.00	608.54
1811.00	569.53
1812.00	564.85
1813.00	546.91
1814.00	561.73
1815.00	526.62
1816.00	504.78
1817.00	466.55
1818.00	489.95
1819.00	493.85
1820.00	525.84
1821.00	529.74
1822.00	589.81
1823.00	640.53
1824.00	653.79
1825.00	642.87
1826.00	600.74
1827.00	562.51
1828.00	539.10
1829.00	525.84
1830.00	525.84
1831.00	489.17
1832.00	478.25
1833.00	476.69
1834.00	495.41
1835.00	507.12
1836.00	528.96
1837.00	511.80
1838.00	476.69
1839.00	427.54
1840.00	417.40
1841.00	436.12
1842.00	475.13
1843.00	469.67
1844.00	454.84
1845.00	432.22
1846.00	431.44
1847.00	440.02
1848.00	426.76
1849.00	443.14
1850.00	445.48
1851.00	463.43
1852.00	461.87
1853.00	464.21
1854.00	450.16
1855.00	416.62
1856.00	418.96
1857.00	427.54
1858.00	450.16
1859.00	474.35
1860.00	493.85
1861.00	491.51
1862.00	471.23
1863.00	424.42
1864.00	420.52
1865.00	422.08
1866.00	437.68
1867.00	422.08
1868.00	427.54
1869.00	445.48
1870.00	473.57
1871.00	455.62
1872.00	450.16
1873.00	441.58
1874.00	444.70
1875.00	460.31
1876.00	464.99
1877.00	444.70
1878.00	423.64
1879.00	425.20
1880.00	442.36
1881.00	453.28
1882.00	466.55
1883.00	489.95
1884.00	496.19
1885.00	509.46
1886.00	504.78
1887.00	493.85
1888.00	447.82
1889.00	453.28
1890.00	462.65
1891.00	470.45
1892.00	447.04
1893.00	427.54
1894.00	433.00
1895.00	433.78
1896.00	432.22
1897.00	420.52
1898.00	411.15
1899.00	404.13
1900.00	411.15
1901.00	411.93
1902.00	455.62
1903.00	464.99
1904.00	476.69
1905.00	478.25
1906.00	489.17
1907.00	515.70
1908.00	572.65
1909.00	638.97
1910.00	670.17
1911.00	649.89
1912.00	632.72
1913.00	598.40
1914.00	558.61
1915.00	497.75
1916.00	476.69
1917.00	454.84
1918.00	464.21
1919.00	471.23
1920.00	504.78
1921.00	509.46
1922.00	517.26
1923.00	474.35
1924.00	437.68
1925.00	397.11
1926.00	407.25
1927.00	440.80
1928.00	470.45
1929.00	474.35
1930.00	452.50
1931.00	434.56
1932.00	443.14
1933.00	448.60
1934.00	471.23
1935.00	489.95
1936.00	494.63
1937.00	496.97
1938.00	466.55
1939.00	469.67
1940.00	472.01
1941.00	482.15
1942.00	486.05
1943.00	488.39
1944.00	508.68
1945.00	541.44
1946.00	619.46
1947.00	937.77
1948.00	1995.70
1949.00	3989.05
1950.00	7077.00
1951.00	10611.21
1952.00	13405.81
1953.00	14370.89
1954.00	13618.80
1955.00	11704.24
1956.00	9359.80
1957.00	6851.53
1958.00	4727.88
1959.00	3165.96
1960.00	2071.37
1961.00	1388.72
1962.00	990.83
1963.00	789.54
1964.00	673.29
1965.00	611.66
1966.00	574.21
1967.00	539.10
1968.00	536.76
1969.00	520.38
1970.00	510.24
1971.00	492.29
1972.00	499.31
1973.00	514.14
1974.00	558.61
1975.00	610.10
1976.00	741.95
1977.00	902.67
1978.00	1095.37
1979.00	1235.02
1980.00	1283.39
1981.00	1221.76
1982.00	1123.46
1983.00	980.68
1984.00	855.08
1985.00	706.06
1986.00	615.56
1987.00	584.35
1988.00	553.15
1989.00	516.48
1990.00	461.09
1991.00	464.21
1992.00	474.35
1993.00	483.71
1994.00	454.06
1995.00	443.92
1996.00	462.65
1997.00	480.59
1998.00	487.61
1999.00	444.70
2000.00	436.12
2001.00	460.31
2002.00	496.19
2003.00	527.40
2004.00	493.85
2005.00	466.55
2006.00	456.40
2007.00	475.13
2008.00	500.09
2009.00	525.84
2010.00	526.62
2011.00	546.91
2012.00	521.16
2013.00	553.93
2014.00	544.56
2015.00	552.37
2016.00	546.91
2017.00	558.61
2018.00	589.03
2019.00	649.89
2020.00	787.20
2021.00	968.20
2022.00	1196.79
2023.00	1433.97
2024.00	1973.07
2025.00	3531.09
2026.00	6666.63
2027.00	11890.70
2028.00	18587.75
2029.00	25269.98
2030.00	29494.65
2031.00	30114.11
2032.00	27899.97
2033.00	23885.17
2034.00	19028.56
2035.00	13891.08
2036.00	9513.50
2037.00	6260.93
2038.00	4014.02
2039.00	2530.12
2040.00	1637.59
2041.00	1167.93
2042.00	936.99
2043.00	814.51
2044.00	718.54
2045.00	680.32
2046.00	645.21
2047.00	601.52
>>>>>End Processed Spectral Data<<<<<
