SpectraSuite Data File
++++++++++++++++++++++++++++++++++++
Date: Thu Nov 16 13:55:15 EST 2017
User: cheriyan
Dark Spectrum Present: No
Reference Spectrum Present: No
Number of Sampled Component Spectra: 1
Spectrometers: USB2+H05261
Integration Time (usec): 100000 (USB2+H05261)
Spectra Averaged: 1 (USB2+H05261)
Boxcar Smoothing: 1 (USB2+H05261)
Correct for Electrical Dark: No (USB2+H05261)
Strobe/Lamp Enabled: No (USB2+H05261)
Correct for Detector Non-linearity: No (USB2+H05261)
Correct for Stray Light: No (USB2+H05261)
Number of Pixels in Processed Spectrum: 2048
>>>>>Begin Processed Spectral Data<<<<<
0.00	353.42
1.00	353.42
2.00	322.21
3.00	276.96
4.00	265.26
5.00	260.58
6.00	265.26
7.00	220.79
8.00	227.03
9.00	226.25
10.00	239.51
11.00	239.51
12.00	263.70
13.00	245.76
14.00	252.00
15.00	237.17
16.00	266.82
17.00	259.80
18.00	280.08
19.00	277.74
20.00	275.40
21.00	280.08
22.00	300.37
23.00	319.87
24.00	319.09
25.00	357.32
26.00	405.69
27.00	425.98
28.00	390.87
29.00	362.78
30.00	350.30
31.00	370.58
32.00	376.05
33.00	393.99
34.00	404.91
35.00	435.34
36.00	440.80
37.00	449.38
38.00	427.54
39.00	429.88
40.00	428.32
41.00	450.16
42.00	466.55
43.00	468.11
44.00	459.53
45.00	450.94
46.00	421.30
47.00	416.62
48.00	426.76
49.00	438.46
50.00	442.36
51.00	411.15
52.00	414.27
53.00	390.09
54.00	397.11
55.00	416.62
56.00	408.03
57.00	409.59
58.00	397.89
59.00	405.69
60.00	400.23
61.00	382.29
62.00	390.87
63.00	383.85
64.00	399.45
65.00	407.25
66.00	401.79
67.00	411.93
68.00	391.65
69.00	411.15
70.00	405.69
71.00	412.71
72.00	383.85
73.00	372.93
74.00	362.78
75.00	390.09
76.00	405.69
77.00	436.12
78.00	438.46
79.00	427.54
80.00	395.55
81.00	386.19
82.00	405.69
83.00	422.08
84.00	418.18
85.00	393.99
86.00	403.35
87.00	412.71
88.00	408.03
89.00	390.87
90.00	405.69
91.00	420.52
92.00	419.74
93.00	408.81
94.00	402.57
95.00	393.99
96.00	380.73
97.00	362.78
98.00	386.19
99.00	376.83
100.00	398.67
101.00	381.51
102.00	383.85
103.00	383.07
104.00	386.97
105.00	401.79
106.00	398.67
107.00	438.46
108.00	454.06
109.00	463.43
110.00	427.54
111.00	415.84
112.00	433.00
113.00	437.68
114.00	436.90
115.00	409.59
116.00	422.86
117.00	407.25
118.00	417.40
119.00	423.64
120.00	453.28
121.00	453.28
122.00	420.52
123.00	401.79
124.00	388.53
125.00	425.98
126.00	423.64
127.00	440.02
128.00	424.42
129.00	433.78
130.00	408.03
131.00	411.93
132.00	411.93
133.00	428.32
134.00	405.69
135.00	415.84
136.00	421.30
137.00	438.46
138.00	412.71
139.00	408.81
140.00	413.49
141.00	422.08
142.00	439.24
143.00	439.24
144.00	479.81
145.00	475.91
146.00	489.17
147.00	467.33
148.00	463.43
149.00	466.55
150.00	458.75
151.00	443.14
152.00	431.44
153.00	422.86
154.00	414.27
155.00	403.35
156.00	379.17
157.00	381.51
158.00	375.27
159.00	401.79
160.00	408.81
161.00	403.35
162.00	415.84
163.00	400.23
164.00	404.91
165.00	399.45
166.00	415.06
167.00	408.81
168.00	423.64
169.00	429.88
170.00	438.46
171.00	401.01
172.00	422.08
173.00	435.34
174.00	458.74
175.00	422.08
176.00	425.20
177.00	414.27
178.00	443.92
179.00	429.88
180.00	433.00
181.00	422.08
182.00	431.44
183.00	443.92
184.00	444.70
185.00	431.44
186.00	404.13
187.00	382.29
188.00	394.77
189.00	403.35
190.00	408.03
191.00	397.11
192.00	415.84
193.00	441.58
194.00	464.99
195.00	493.07
196.00	534.42
197.00	532.86
198.00	532.86
199.00	466.55
200.00	431.44
201.00	409.59
202.00	411.15
203.00	411.93
204.00	404.13
205.00	397.11
206.00	399.45
207.00	366.68
208.00	393.21
209.00	393.21
210.00	429.10
211.00	404.91
212.00	414.27
213.00	384.63
214.00	404.13
215.00	404.13
216.00	434.56
217.00	419.74
218.00	397.11
219.00	376.05
220.00	393.21
221.00	407.25
222.00	413.49
223.00	415.84
224.00	413.49
225.00	410.37
226.00	389.31
227.00	407.25
228.00	406.47
229.00	412.71
230.00	404.91
231.00	375.27
232.00	389.31
233.00	404.91
234.00	441.58
235.00	416.62
236.00	392.43
237.00	395.55
238.00	376.83
239.00	368.24
240.00	364.34
241.00	382.29
242.00	404.91
243.00	416.62
244.00	443.92
245.00	447.04
246.00	422.08
247.00	425.98
248.00	422.86
249.00	436.12
250.00	420.52
251.00	405.69
252.00	412.71
253.00	419.74
254.00	479.81
255.00	501.65
256.00	515.70
257.00	479.81
258.00	474.35
259.00	440.80
260.00	429.88
261.00	416.62
262.00	438.46
263.00	464.21
264.00	445.48
265.00	454.84
266.00	472.01
267.00	543.00
268.00	585.13
269.00	579.67
270.00	571.09
271.00	599.96
272.00	630.38
273.00	638.97
274.00	591.38
275.00	564.85
276.00	553.15
277.00	561.73
278.00	560.95
279.00	521.94
280.00	519.60
281.00	483.71
282.00	472.79
283.00	424.42
284.00	423.64
285.00	434.56
286.00	427.54
287.00	436.12
288.00	429.10
289.00	469.67
290.00	445.48
291.00	428.32
292.00	406.47
293.00	386.97
294.00	386.19
295.00	351.86
296.00	394.77
297.00	397.89
298.00	430.66
299.00	411.15
300.00	422.86
301.00	415.84
302.00	412.71
303.00	429.10
304.00	442.36
305.00	464.21
306.00	473.57
307.00	512.58
308.00	591.38
309.00	644.43
310.00	622.58
311.00	594.50
312.00	532.86
313.00	503.22
314.00	427.54
315.00	407.25
316.00	411.93
317.00	420.52
318.00	442.36
319.00	430.66
320.00	443.92
321.00	407.25
322.00	400.23
323.00	375.27
324.00	371.36
325.00	386.97
326.00	404.13
327.00	439.24
328.00	447.04
329.00	428.32
330.00	410.37
331.00	408.81
332.00	425.20
333.00	404.13
334.00	383.07
335.00	383.07
336.00	412.71
337.00	413.49
338.00	424.42
339.00	425.98
340.00	435.34
341.00	448.60
342.00	446.26
343.00	426.76
344.00	410.37
345.00	446.26
346.00	523.50
347.00	603.86
348.00	698.26
349.00	738.83
350.00	736.49
351.00	642.87
352.00	585.91
353.00	520.38
354.00	514.14
355.00	499.31
356.00	522.72
357.00	497.75
358.00	462.65
359.00	421.30
360.00	413.49
361.00	426.76
362.00	455.62
363.00	459.53
364.00	450.16
365.00	408.03
366.00	392.43
367.00	388.53
368.00	429.88
369.00	446.26
370.00	475.13
371.00	455.62
372.00	463.43
373.00	451.72
374.00	453.28
375.00	435.34
376.00	400.23
377.00	376.83
378.00	388.53
379.00	432.22
380.00	462.65
381.00	453.28
382.00	427.54
383.00	408.81
384.00	398.67
385.00	379.17
386.00	368.24
387.00	355.76
388.00	361.22
389.00	372.93
390.00	388.53
391.00	416.62
392.00	406.47
393.00	401.79
394.00	413.49
395.00	439.24
396.00	436.12
397.00	447.04
398.00	453.28
399.00	469.67
400.00	444.70
401.00	415.06
402.00	411.93
403.00	418.96
404.00	438.46
405.00	429.88
406.00	438.46
407.00	395.55
408.00	391.65
409.00	373.71
410.00	414.27
411.00	419.74
412.00	433.00
413.00	433.78
414.00	425.20
415.00	422.86
416.00	416.62
417.00	430.66
418.00	422.08
419.00	423.64
420.00	434.56
421.00	408.81
422.00	397.89
423.00	389.31
424.00	415.84
425.00	417.40
426.00	425.20
427.00	407.25
428.00	432.22
429.00	446.26
430.00	471.23
431.00	439.24
432.00	397.89
433.00	392.43
434.00	407.25
435.00	443.92
436.00	424.42
437.00	418.96
438.00	389.31
439.00	411.93
440.00	443.14
441.00	470.45
442.00	481.37
443.00	457.96
444.00	467.33
445.00	451.72
446.00	460.31
447.00	441.58
448.00	444.70
449.00	438.46
450.00	440.02
451.00	443.14
452.00	457.96
453.00	449.38
454.00	448.60
455.00	446.26
456.00	457.18
457.00	461.09
458.00	434.56
459.00	415.84
460.00	405.69
461.00	422.08
462.00	436.90
463.00	442.36
464.00	427.54
465.00	433.00
466.00	427.54
467.00	415.06
468.00	413.49
469.00	400.23
470.00	416.62
471.00	412.71
472.00	422.08
473.00	419.74
474.00	429.88
475.00	442.36
476.00	441.58
477.00	413.49
478.00	408.03
479.00	419.74
480.00	438.46
481.00	472.01
482.00	463.43
483.00	445.48
484.00	429.88
485.00	424.42
486.00	442.36
487.00	418.96
488.00	425.98
489.00	428.32
490.00	443.14
491.00	429.88
492.00	440.80
493.00	440.80
494.00	463.43
495.00	485.27
496.00	485.27
497.00	469.67
498.00	435.34
499.00	396.33
500.00	413.49
501.00	418.18
502.00	434.56
503.00	401.01
504.00	390.87
505.00	374.49
506.00	394.77
507.00	382.29
508.00	409.59
509.00	404.91
510.00	386.97
511.00	379.17
512.00	367.46
513.00	402.57
514.00	413.49
515.00	439.24
516.00	447.04
517.00	432.22
518.00	415.84
519.00	402.57
520.00	397.11
521.00	391.65
522.00	379.95
523.00	399.45
524.00	388.53
525.00	397.11
526.00	402.57
527.00	409.59
528.00	418.96
529.00	411.93
530.00	418.18
531.00	432.22
532.00	446.26
533.00	467.33
534.00	457.18
535.00	426.76
536.00	419.74
537.00	420.52
538.00	420.52
539.00	422.08
540.00	422.08
541.00	429.10
542.00	419.74
543.00	420.52
544.00	433.00
545.00	432.22
546.00	415.06
547.00	428.32
548.00	466.55
549.00	480.59
550.00	458.74
551.00	452.50
552.00	479.81
553.00	495.41
554.00	494.63
555.00	473.57
556.00	486.83
557.00	487.61
558.00	472.79
559.00	416.62
560.00	398.67
561.00	401.01
562.00	427.54
563.00	437.68
564.00	424.42
565.00	435.34
566.00	442.36
567.00	448.60
568.00	456.40
569.00	425.20
570.00	430.66
571.00	418.96
572.00	443.14
573.00	445.48
574.00	457.96
575.00	443.14
576.00	440.80
577.00	425.98
578.00	426.76
579.00	404.13
580.00	386.19
581.00	392.43
582.00	419.74
583.00	444.70
584.00	422.08
585.00	427.54
586.00	422.86
587.00	440.02
588.00	426.76
589.00	422.08
590.00	437.68
591.00	428.32
592.00	432.22
593.00	422.08
594.00	393.21
595.00	409.59
596.00	396.33
597.00	420.52
598.00	388.53
599.00	409.59
600.00	433.00
601.00	462.65
602.00	447.82
603.00	419.74
604.00	404.91
605.00	391.65
606.00	418.18
607.00	425.20
608.00	447.82
609.00	440.80
610.00	430.66
611.00	426.76
612.00	410.37
613.00	409.59
614.00	403.35
615.00	422.86
616.00	426.76
617.00	380.73
618.00	365.90
619.00	379.95
620.00	437.68
621.00	468.11
622.00	470.45
623.00	439.24
624.00	404.13
625.00	373.71
626.00	369.02
627.00	378.39
628.00	408.03
629.00	444.70
630.00	462.65
631.00	434.56
632.00	436.12
633.00	397.11
634.00	397.11
635.00	372.93
636.00	422.08
637.00	450.16
638.00	475.13
639.00	489.95
640.00	481.37
641.00	452.50
642.00	428.32
643.00	411.15
644.00	447.04
645.00	445.48
646.00	466.55
647.00	454.06
648.00	467.33
649.00	472.79
650.00	485.27
651.00	472.79
652.00	457.96
653.00	457.96
654.00	487.61
655.00	495.41
656.00	489.17
657.00	452.50
658.00	453.28
659.00	437.68
660.00	416.62
661.00	403.35
662.00	417.40
663.00	436.12
664.00	406.47
665.00	420.52
666.00	440.02
667.00	453.28
668.00	441.58
669.00	418.18
670.00	453.28
671.00	443.14
672.00	449.38
673.00	428.32
674.00	424.42
675.00	437.68
676.00	442.36
677.00	433.00
678.00	426.76
679.00	421.30
680.00	425.98
681.00	420.52
682.00	436.90
683.00	436.90
684.00	434.56
685.00	406.47
686.00	400.23
687.00	395.55
688.00	426.76
689.00	444.70
690.00	464.99
691.00	461.09
692.00	441.58
693.00	402.57
694.00	400.23
695.00	438.46
696.00	457.96
697.00	454.84
698.00	434.56
699.00	416.62
700.00	408.81
701.00	413.49
702.00	436.12
703.00	441.58
704.00	461.09
705.00	461.09
706.00	459.53
707.00	420.52
708.00	440.80
709.00	446.26
710.00	450.94
711.00	407.25
712.00	410.37
713.00	413.49
714.00	414.27
715.00	401.01
716.00	404.13
717.00	433.78
718.00	504.00
719.00	515.70
720.00	515.70
721.00	455.62
722.00	429.88
723.00	429.10
724.00	429.88
725.00	441.58
726.00	433.00
727.00	421.30
728.00	448.60
729.00	471.23
730.00	486.05
731.00	482.15
732.00	445.48
733.00	458.75
734.00	459.53
735.00	514.14
736.00	533.64
737.00	539.88
738.00	525.84
739.00	500.87
740.00	469.67
741.00	461.87
742.00	450.94
743.00	478.25
744.00	485.27
745.00	488.39
746.00	451.72
747.00	411.93
748.00	386.97
749.00	411.93
750.00	438.46
751.00	418.96
752.00	402.57
753.00	400.23
754.00	472.01
755.00	473.57
756.00	468.89
757.00	448.60
758.00	478.25
759.00	498.53
760.00	499.31
761.00	500.09
762.00	516.48
763.00	516.48
764.00	507.12
765.00	452.50
766.00	411.15
767.00	390.09
768.00	414.27
769.00	444.70
770.00	463.43
771.00	470.45
772.00	457.96
773.00	447.82
774.00	416.62
775.00	403.35
776.00	388.53
777.00	407.25
778.00	450.16
779.00	479.81
780.00	507.12
781.00	525.06
782.00	534.42
783.00	585.91
784.00	578.11
785.00	551.59
786.00	454.84
787.00	404.91
788.00	407.25
789.00	421.30
790.00	425.98
791.00	409.59
792.00	415.06
793.00	429.10
794.00	426.76
795.00	405.69
796.00	415.84
797.00	443.14
798.00	494.63
799.00	506.34
800.00	484.49
801.00	464.99
802.00	448.60
803.00	483.71
804.00	472.79
805.00	493.07
806.00	465.77
807.00	482.93
808.00	456.40
809.00	440.02
810.00	412.71
811.00	411.15
812.00	415.84
813.00	414.27
814.00	425.20
815.00	442.36
816.00	432.22
817.00	436.90
818.00	446.26
819.00	466.55
820.00	471.23
821.00	482.15
822.00	526.62
823.00	547.69
824.00	539.88
825.00	503.22
826.00	477.47
827.00	462.65
828.00	457.18
829.00	467.33
830.00	481.37
831.00	478.25
832.00	479.81
833.00	491.51
834.00	497.75
835.00	485.27
836.00	466.55
837.00	486.83
838.00	494.63
839.00	461.87
840.00	418.96
841.00	386.19
842.00	411.93
843.00	427.54
844.00	440.02
845.00	433.00
846.00	449.38
847.00	447.82
848.00	432.22
849.00	405.69
850.00	411.15
851.00	433.78
852.00	467.33
853.00	459.53
854.00	419.74
855.00	381.51
856.00	404.91
857.00	437.68
858.00	454.06
859.00	445.48
860.00	456.40
861.00	460.31
862.00	458.74
863.00	468.11
864.00	449.38
865.00	432.22
866.00	415.06
867.00	429.88
868.00	439.24
869.00	431.44
870.00	419.74
871.00	409.59
872.00	423.64
873.00	432.22
874.00	435.34
875.00	433.78
876.00	429.10
877.00	436.90
878.00	456.40
879.00	467.33
880.00	453.28
881.00	429.88
882.00	412.71
883.00	441.58
884.00	437.68
885.00	453.28
886.00	425.20
887.00	447.82
888.00	457.18
889.00	465.77
890.00	487.61
891.00	478.25
892.00	489.95
893.00	457.96
894.00	453.28
895.00	440.02
896.00	431.44
897.00	415.84
898.00	410.37
899.00	422.86
900.00	443.92
901.00	457.18
902.00	476.69
903.00	528.96
904.00	628.82
905.00	748.19
906.00	838.69
907.00	842.59
908.00	779.40
909.00	1012.67
910.00	1043.10
911.00	1089.91
912.00	860.54
913.00	879.26
914.00	837.13
915.00	731.03
916.00	610.88
917.00	543.00
918.00	512.58
919.00	475.91
920.00	447.82
921.00	439.24
922.00	462.65
923.00	454.84
924.00	463.43
925.00	447.82
926.00	472.01
927.00	466.55
928.00	455.62
929.00	472.79
930.00	453.28
931.00	457.18
932.00	414.27
933.00	411.93
934.00	423.64
935.00	472.01
936.00	498.53
937.00	499.31
938.00	462.65
939.00	450.94
940.00	461.87
941.00	471.23
942.00	492.29
943.00	640.53
944.00	1087.57
945.00	1907.54
946.00	2918.65
947.00	3609.89
948.00	3693.37
949.00	3153.48
950.00	2384.23
951.00	1620.43
952.00	1046.22
953.00	700.60
954.00	543.78
955.00	482.93
956.00	455.62
957.00	472.01
958.00	475.91
959.00	457.18
960.00	451.72
961.00	427.54
962.00	452.50
963.00	436.90
964.00	443.92
965.00	443.92
966.00	452.50
967.00	478.25
968.00	460.31
969.00	455.62
970.00	422.08
971.00	442.36
972.00	439.24
973.00	463.43
974.00	443.14
975.00	442.36
976.00	427.54
977.00	425.20
978.00	424.42
979.00	422.08
980.00	433.78
981.00	441.58
982.00	462.65
983.00	461.09
984.00	456.40
985.00	420.52
986.00	414.27
987.00	404.13
988.00	417.40
989.00	415.84
990.00	418.96
991.00	441.58
992.00	432.22
993.00	440.80
994.00	434.56
995.00	445.48
996.00	433.78
997.00	413.49
998.00	399.45
999.00	421.30
1000.00	428.32
1001.00	445.48
1002.00	418.18
1003.00	425.20
1004.00	433.00
1005.00	464.99
1006.00	469.67
1007.00	486.83
1008.00	484.49
1009.00	499.31
1010.00	489.17
1011.00	485.27
1012.00	461.87
1013.00	441.58
1014.00	440.80
1015.00	443.14
1016.00	443.14
1017.00	439.24
1018.00	429.10
1019.00	444.70
1020.00	450.16
1021.00	463.43
1022.00	448.60
1023.00	439.24
1024.00	454.84
1025.00	440.02
1026.00	438.46
1027.00	423.64
1028.00	464.21
1029.00	458.75
1030.00	453.28
1031.00	433.00
1032.00	460.31
1033.00	494.63
1034.00	482.15
1035.00	457.96
1036.00	440.02
1037.00	440.80
1038.00	468.11
1039.00	463.43
1040.00	486.05
1041.00	472.01
1042.00	479.81
1043.00	495.41
1044.00	504.00
1045.00	543.78
1046.00	512.58
1047.00	513.36
1048.00	423.64
1049.00	433.78
1050.00	406.47
1051.00	457.18
1052.00	450.94
1053.00	456.40
1054.00	432.22
1055.00	450.16
1056.00	454.84
1057.00	453.28
1058.00	447.04
1059.00	418.18
1060.00	408.81
1061.00	410.37
1062.00	402.57
1063.00	430.66
1064.00	429.10
1065.00	456.40
1066.00	456.40
1067.00	453.28
1068.00	447.82
1069.00	464.21
1070.00	436.90
1071.00	440.80
1072.00	404.13
1073.00	428.32
1074.00	444.70
1075.00	460.31
1076.00	462.65
1077.00	454.06
1078.00	443.92
1079.00	470.45
1080.00	479.03
1081.00	470.45
1082.00	456.40
1083.00	457.18
1084.00	461.87
1085.00	445.48
1086.00	461.09
1087.00	473.57
1088.00	499.31
1089.00	486.05
1090.00	487.61
1091.00	461.09
1092.00	468.89
1093.00	466.55
1094.00	482.15
1095.00	486.05
1096.00	490.73
1097.00	486.83
1098.00	500.87
1099.00	543.00
1100.00	593.72
1101.00	589.82
1102.00	598.40
1103.00	584.35
1104.00	557.05
1105.00	526.62
1106.00	493.07
1107.00	505.56
1108.00	479.81
1109.00	454.06
1110.00	450.16
1111.00	421.30
1112.00	432.22
1113.00	418.96
1114.00	442.36
1115.00	447.82
1116.00	430.66
1117.00	422.86
1118.00	432.22
1119.00	486.05
1120.00	525.84
1121.00	532.08
1122.00	538.32
1123.00	513.36
1124.00	527.40
1125.00	457.18
1126.00	462.65
1127.00	425.20
1128.00	441.58
1129.00	425.98
1130.00	424.42
1131.00	455.62
1132.00	483.71
1133.00	496.19
1134.00	479.81
1135.00	440.80
1136.00	468.11
1137.00	501.65
1138.00	568.75
1139.00	585.13
1140.00	588.25
1141.00	560.95
1142.00	520.38
1143.00	493.85
1144.00	515.70
1145.00	521.94
1146.00	543.00
1147.00	507.90
1148.00	502.44
1149.00	478.25
1150.00	504.00
1151.00	499.31
1152.00	511.02
1153.00	490.73
1154.00	528.18
1155.00	578.89
1156.00	655.35
1157.00	710.74
1158.00	719.32
1159.00	706.84
1160.00	647.55
1161.00	644.43
1162.00	608.54
1163.00	662.37
1164.00	769.26
1165.00	1044.66
1166.00	1391.06
1167.00	1644.62
1168.00	1689.87
1169.00	1555.68
1170.00	1282.61
1171.00	1040.76
1172.00	805.14
1173.00	697.48
1174.00	621.80
1175.00	609.32
1176.00	574.99
1177.00	587.47
1178.00	600.74
1179.00	631.94
1180.00	617.90
1181.00	617.90
1182.00	635.85
1183.00	662.37
1184.00	653.79
1185.00	619.46
1186.00	624.92
1187.00	631.94
1188.00	639.75
1189.00	661.59
1190.00	728.69
1191.00	842.59
1192.00	887.06
1193.00	884.72
1194.00	867.56
1195.00	842.59
1196.00	834.01
1197.00	823.09
1198.00	875.36
1199.00	1004.87
1200.00	1206.16
1201.00	1423.83
1202.00	1501.84
1203.00	1482.34
1204.00	1359.07
1205.00	1234.24
1206.00	1132.04
1207.00	1090.69
1208.00	1124.24
1209.00	1132.82
1210.00	1166.37
1211.00	1217.86
1212.00	1337.23
1213.00	1506.52
1214.00	1691.43
1215.00	1983.21
1216.00	2541.82
1217.00	5741.33
1218.00	21085.89
1219.00	41797.29
1220.00	59816.29
1221.00	65535.00
1222.00	65535.00
1223.00	65535.00
1224.00	65535.00
1225.00	65345.42
1226.00	56214.21
1227.00	40519.35
1228.00	21904.29
1229.00	10739.16
1230.00	5518.98
1231.00	3187.81
1232.00	2228.97
1233.00	1849.80
1234.00	1682.06
1235.00	1650.86
1236.00	2105.70
1237.00	3769.04
1238.00	7116.01
1239.00	11632.46
1240.00	15314.13
1241.00	16398.57
1242.00	14590.12
1243.00	11261.10
1244.00	7748.73
1245.00	4874.56
1246.00	2839.07
1247.00	1728.10
1248.00	1200.69
1249.00	977.56
1250.00	928.41
1251.00	977.56
1252.00	1086.01
1253.00	1182.75
1254.00	1250.63
1255.00	1247.51
1256.00	1220.20
1257.00	1121.12
1258.00	1037.64
1259.00	938.55
1260.00	919.83
1261.00	880.82
1262.00	869.12
1263.00	818.41
1264.00	788.76
1265.00	796.56
1266.00	819.19
1267.00	816.07
1268.00	776.28
1269.00	736.49
1270.00	735.71
1271.00	756.77
1272.00	805.14
1273.00	849.61
1274.00	917.49
1275.00	1275.59
1276.00	3055.96
1277.00	7279.85
1278.00	14669.70
1279.00	22824.12
1280.00	28435.95
1281.00	28516.31
1282.00	24365.76
1283.00	17893.40
1284.00	11739.35
1285.00	6757.91
1286.00	3699.61
1287.00	2129.89
1288.00	1352.05
1289.00	997.85
1290.00	886.28
1291.00	860.54
1292.00	879.26
1293.00	891.74
1294.00	887.84
1295.00	1068.84
1296.00	1683.63
1297.00	2970.92
1298.00	4702.14
1299.00	6171.21
1300.00	6753.23
1301.00	6241.43
1302.00	5072.72
1303.00	3637.19
1304.00	2422.45
1305.00	1549.43
1306.00	1142.96
1307.00	936.99
1308.00	894.86
1309.00	830.89
1310.00	794.22
1311.00	724.79
1312.00	677.19
1313.00	631.16
1314.00	600.74
1315.00	612.44
1316.00	631.94
1317.00	614.78
1318.00	592.16
1319.00	541.44
1320.00	536.76
1321.00	518.82
1322.00	528.18
1323.00	528.96
1324.00	546.91
1325.00	581.23
1326.00	574.99
1327.00	566.41
1328.00	557.83
1329.00	645.99
1330.00	981.46
1331.00	1849.80
1332.00	3435.91
1333.00	5394.93
1334.00	6924.86
1335.00	7297.01
1336.00	6575.34
1337.00	5167.12
1338.00	3678.54
1339.00	2377.20
1340.00	1487.02
1341.00	1005.65
1342.00	741.95
1343.00	661.59
1344.00	641.31
1345.00	670.17
1346.00	629.60
1347.00	623.36
1348.00	596.06
1349.00	607.76
1350.00	610.88
1351.00	635.85
1352.00	667.83
1353.00	696.70
1354.00	715.42
1355.00	755.99
1356.00	797.34
1357.00	888.62
1358.00	1464.40
1359.00	3447.61
1360.00	7649.65
1361.00	14100.95
1362.00	20318.97
1363.00	23850.84
1364.00	22800.72
1365.00	18951.32
1366.00	13590.71
1367.00	8878.43
1368.00	5147.62
1369.00	3016.17
1370.00	1925.48
1371.00	1526.03
1372.00	2213.37
1373.00	5541.61
1374.00	12755.14
1375.00	24328.31
1376.00	35640.12
1377.00	42253.69
1378.00	40811.14
1379.00	34196.79
1380.00	24841.67
1381.00	16120.83
1382.00	9084.40
1383.00	4891.72
1384.00	2737.65
1385.00	1678.94
1386.00	1196.79
1387.00	983.02
1388.00	909.69
1389.00	881.60
1390.00	852.74
1391.00	826.21
1392.00	844.15
1393.00	884.72
1394.00	992.39
1395.00	1149.20
1396.00	1450.35
1397.00	1714.83
1398.00	1867.75
1399.00	1830.30
1400.00	1739.80
1401.00	1657.88
1402.00	2201.66
1403.00	5608.70
1404.00	14810.91
1405.00	30616.55
1406.00	46571.20
1407.00	57115.31
1408.00	58921.43
1409.00	54719.38
1410.00	44862.61
1411.00	31761.07
1412.00	18916.99
1413.00	10052.60
1414.00	5274.79
1415.00	3053.62
1416.00	2448.20
1417.00	3601.30
1418.00	6634.64
1419.00	11174.50
1420.00	15398.38
1421.00	17354.29
1422.00	16276.87
1423.00	13336.37
1424.00	9667.97
1425.00	6356.90
1426.00	3735.50
1427.00	2181.38
1428.00	1396.52
1429.00	1024.37
1430.00	890.18
1431.00	855.86
1432.00	833.23
1433.00	827.77
1434.00	774.72
1435.00	761.45
1436.00	716.98
1437.00	686.56
1438.00	631.16
1439.00	590.60
1440.00	621.80
1441.00	619.46
1442.00	631.16
1443.00	610.88
1444.00	592.16
1445.00	588.25
1446.00	577.33
1447.00	613.22
1448.00	642.87
1449.00	694.36
1450.00	721.67
1451.00	1004.09
1452.00	1824.84
1453.00	3609.11
1454.00	6168.87
1455.00	8702.89
1456.00	10097.07
1457.00	9856.78
1458.00	8437.63
1459.00	6377.96
1460.00	4314.39
1461.00	2620.62
1462.00	1590.78
1463.00	1085.23
1464.00	827.77
1465.00	747.41
1466.00	718.54
1467.00	706.84
1468.00	641.31
1469.00	592.16
1470.00	557.83
1471.00	553.93
1472.00	588.25
1473.00	599.18
1474.00	644.43
1475.00	639.75
1476.00	658.47
1477.00	670.95
1478.00	703.72
1479.00	702.16
1480.00	715.42
1481.00	722.45
1482.00	802.02
1483.00	1176.51
1484.00	3056.74
1485.00	7613.76
1486.00	15702.65
1487.00	25519.64
1488.00	33248.87
1489.00	35366.27
1490.00	31759.51
1491.00	24952.45
1492.00	17317.62
1493.00	10663.48
1494.00	5844.32
1495.00	3186.25
1496.00	1843.56
1497.00	1157.00
1498.00	877.70
1499.00	767.70
1500.00	734.93
1501.00	684.22
1502.00	652.23
1503.00	623.36
1504.00	660.81
1505.00	702.94
1506.00	699.04
1507.00	677.98
1508.00	681.10
1509.00	965.86
1510.00	1756.18
1511.00	3312.64
1512.00	5570.47
1513.00	7641.85
1514.00	8778.57
1515.00	8468.06
1516.00	7237.72
1517.00	5520.54
1518.00	3833.80
1519.00	2477.85
1520.00	1591.56
1521.00	1136.72
1522.00	908.13
1523.00	795.78
1524.00	759.11
1525.00	686.56
1526.00	699.82
1527.00	750.53
1528.00	1022.03
1529.00	2058.89
1530.00	4627.24
1531.00	9328.60
1532.00	15738.54
1533.00	21316.04
1534.00	23665.94
1535.00	22019.76
1536.00	18035.39
1537.00	13142.89
1538.00	8544.52
1539.00	4899.52
1540.00	2758.71
1541.00	1709.37
1542.00	1192.89
1543.00	958.84
1544.00	825.43
1545.00	748.19
1546.00	741.95
1547.00	727.91
1548.00	731.81
1549.00	727.91
1550.00	713.86
1551.00	719.32
1552.00	732.59
1553.00	748.97
1554.00	748.97
1555.00	732.59
1556.00	761.45
1557.00	802.02
1558.00	838.69
1559.00	888.62
1560.00	982.24
1561.00	1742.14
1562.00	4699.80
1563.00	11236.13
1564.00	21897.27
1565.00	33744.28
1566.00	42076.59
1567.00	43547.23
1568.00	38757.71
1569.00	30685.20
1570.00	21568.82
1571.00	13460.42
1572.00	7584.90
1573.00	4443.90
1574.00	3906.35
1575.00	7815.83
1576.00	17467.42
1577.00	32967.23
1578.00	47636.14
1579.00	57073.96
1580.00	58319.91
1581.00	54206.81
1582.00	45252.70
1583.00	32945.38
1584.00	20379.04
1585.00	10993.50
1586.00	5826.37
1587.00	3208.09
1588.00	1977.75
1589.00	1366.87
1590.00	1076.65
1591.00	902.67
1592.00	803.58
1593.00	796.56
1594.00	799.68
1595.00	766.14
1596.00	711.52
1597.00	668.61
1598.00	614.78
1599.00	597.62
1600.00	580.45
1601.00	600.74
1602.00	606.98
1603.00	581.23
1604.00	567.19
1605.00	559.39
1606.00	594.50
1607.00	614.00
1608.00	605.42
1609.00	558.61
1610.00	561.73
1611.00	557.05
1612.00	549.25
1613.00	563.29
1614.00	554.71
1615.00	585.13
1616.00	575.77
1617.00	584.35
1618.00	577.33
1619.00	555.49
1620.00	554.71
1621.00	558.61
1622.00	561.73
1623.00	573.43
1624.00	599.96
1625.00	614.78
1626.00	594.50
1627.00	575.77
1628.00	576.55
1629.00	569.53
1630.00	575.77
1631.00	579.67
1632.00	614.78
1633.00	593.72
1634.00	582.79
1635.00	600.74
1636.00	638.97
1637.00	623.36
1638.00	611.66
1639.00	592.16
1640.00	645.21
1641.00	649.11
1642.00	670.17
1643.00	677.98
1644.00	769.26
1645.00	1328.64
1646.00	3371.15
1647.00	8017.12
1648.00	15841.53
1649.00	25247.36
1650.00	32688.70
1651.00	34841.99
1652.00	31918.67
1653.00	25895.69
1654.00	18970.82
1655.00	12298.74
1656.00	7095.72
1657.00	3932.10
1658.00	2260.18
1659.00	1375.45
1660.00	963.52
1661.00	800.46
1662.00	780.96
1663.00	885.50
1664.00	1470.64
1665.00	2897.58
1666.00	5288.05
1667.00	8333.09
1668.00	10942.78
1669.00	12182.49
1670.00	11577.85
1671.00	9737.41
1672.00	7330.56
1673.00	4968.18
1674.00	3066.10
1675.00	1856.82
1676.00	1189.77
1677.00	858.20
1678.00	681.88
1679.00	628.82
1680.00	595.28
1681.00	556.27
1682.00	526.62
1683.00	488.39
1684.00	495.41
1685.00	518.04
1686.00	512.58
1687.00	518.04
1688.00	506.34
1689.00	522.72
1690.00	530.52
1691.00	531.30
1692.00	513.36
1693.00	500.09
1694.00	508.68
1695.00	534.42
1696.00	577.33
1697.00	582.01
1698.00	582.79
1699.00	535.20
1700.00	504.78
1701.00	493.85
1702.00	536.76
1703.00	562.51
1704.00	573.43
1705.00	531.30
1706.00	560.95
1707.00	570.31
1708.00	655.35
1709.00	874.58
1710.00	1859.95
1711.00	4001.54
1712.00	7691.00
1713.00	12101.35
1714.00	15790.03
1715.00	17192.02
1716.00	16212.89
1717.00	13580.57
1718.00	10229.70
1719.00	6896.00
1720.00	4191.12
1721.00	2478.63
1722.00	1536.17
1723.00	1043.10
1724.00	784.86
1725.00	639.75
1726.00	573.43
1727.00	547.69
1728.00	528.18
1729.00	527.40
1730.00	518.82
1731.00	520.38
1732.00	493.85
1733.00	479.03
1734.00	493.85
1735.00	528.18
1736.00	553.15
1737.00	553.15
1738.00	525.06
1739.00	491.51
1740.00	464.99
1741.00	457.96
1742.00	486.83
1743.00	497.75
1744.00	529.74
1745.00	526.62
1746.00	553.93
1747.00	546.12
1748.00	564.85
1749.00	544.56
1750.00	546.12
1751.00	560.95
1752.00	587.47
1753.00	603.86
1754.00	594.50
1755.00	588.25
1756.00	597.62
1757.00	574.21
1758.00	593.72
1759.00	592.94
1760.00	596.84
1761.00	559.39
1762.00	591.38
1763.00	652.23
1764.00	776.28
1765.00	1448.79
1766.00	3744.08
1767.00	8150.53
1768.00	15204.90
1769.00	22917.75
1770.00	28805.75
1771.00	30331.78
1772.00	27885.92
1773.00	22883.42
1774.00	16903.35
1775.00	11101.16
1776.00	6662.72
1777.00	3818.19
1778.00	2241.45
1779.00	1410.56
1780.00	1000.97
1781.00	805.14
1782.00	681.10
1783.00	642.09
1784.00	600.74
1785.00	572.65
1786.00	542.22
1787.00	526.62
1788.00	551.59
1789.00	588.25
1790.00	637.41
1791.00	664.71
1792.00	809.05
1793.00	1594.69
1794.00	3532.65
1795.00	6873.37
1796.00	11397.63
1797.00	15800.18
1798.00	18373.99
1799.00	18281.92
1800.00	16014.73
1801.00	12599.88
1802.00	8956.45
1803.00	5734.31
1804.00	3460.09
1805.00	2049.53
1806.00	1278.71
1807.00	917.49
1808.00	695.92
1809.00	587.47
1810.00	540.66
1811.00	562.51
1812.00	569.53
1813.00	555.49
1814.00	546.91
1815.00	521.16
1816.00	538.32
1817.00	525.06
1818.00	528.18
1819.00	534.42
1820.00	569.53
1821.00	575.77
1822.00	621.02
1823.00	643.65
1824.00	694.36
1825.00	660.03
1826.00	637.41
1827.00	573.43
1828.00	543.78
1829.00	518.04
1830.00	518.82
1831.00	482.15
1832.00	482.15
1833.00	455.62
1834.00	457.96
1835.00	413.49
1836.00	411.15
1837.00	421.30
1838.00	446.26
1839.00	469.67
1840.00	476.69
1841.00	472.79
1842.00	473.57
1843.00	468.89
1844.00	465.77
1845.00	437.68
1846.00	406.47
1847.00	409.59
1848.00	404.91
1849.00	423.64
1850.00	421.30
1851.00	446.26
1852.00	471.23
1853.00	466.55
1854.00	456.40
1855.00	416.62
1856.00	416.62
1857.00	423.64
1858.00	437.68
1859.00	468.89
1860.00	479.81
1861.00	496.19
1862.00	451.72
1863.00	454.84
1864.00	441.58
1865.00	454.84
1866.00	434.56
1867.00	449.38
1868.00	457.18
1869.00	463.43
1870.00	473.57
1871.00	472.79
1872.00	471.23
1873.00	434.56
1874.00	433.00
1875.00	440.80
1876.00	464.21
1877.00	457.18
1878.00	457.18
1879.00	439.24
1880.00	447.04
1881.00	434.56
1882.00	479.03
1883.00	503.22
1884.00	512.58
1885.00	489.95
1886.00	486.05
1887.00	470.45
1888.00	436.12
1889.00	418.96
1890.00	433.78
1891.00	458.75
1892.00	453.28
1893.00	436.12
1894.00	415.06
1895.00	433.00
1896.00	450.94
1897.00	471.23
1898.00	451.72
1899.00	433.78
1900.00	435.34
1901.00	432.22
1902.00	427.54
1903.00	427.54
1904.00	444.70
1905.00	489.17
1906.00	509.46
1907.00	539.88
1908.00	592.16
1909.00	640.53
1910.00	676.41
1911.00	614.00
1912.00	595.28
1913.00	560.95
1914.00	539.10
1915.00	483.71
1916.00	458.75
1917.00	470.45
1918.00	482.15
1919.00	508.68
1920.00	506.34
1921.00	507.90
1922.00	468.89
1923.00	467.33
1924.00	453.28
1925.00	420.52
1926.00	401.79
1927.00	436.90
1928.00	442.36
1929.00	454.84
1930.00	393.99
1931.00	411.93
1932.00	406.47
1933.00	429.10
1934.00	436.12
1935.00	454.84
1936.00	492.29
1937.00	500.87
1938.00	500.09
1939.00	481.37
1940.00	478.25
1941.00	471.23
1942.00	469.67
1943.00	496.97
1944.00	507.90
1945.00	533.64
1946.00	585.91
1947.00	983.81
1948.00	2068.25
1949.00	4084.23
1950.00	7114.45
1951.00	10571.42
1952.00	13403.47
1953.00	14562.81
1954.00	13784.20
1955.00	11881.34
1956.00	9316.89
1957.00	6919.40
1958.00	4753.63
1959.00	3241.64
1960.00	2118.96
1961.00	1416.80
1962.00	973.66
1963.00	760.67
1964.00	615.56
1965.00	525.06
1966.00	490.73
1967.00	493.07
1968.00	496.19
1969.00	503.22
1970.00	493.85
1971.00	513.36
1972.00	477.47
1973.00	499.31
1974.00	559.39
1975.00	649.89
1976.00	763.01
1977.00	922.17
1978.00	1110.19
1979.00	1274.03
1980.00	1278.71
1981.00	1245.95
1982.00	1121.90
1983.00	977.56
1984.00	816.07
1985.00	675.63
1986.00	610.88
1987.00	561.73
1988.00	545.34
1989.00	531.30
1990.00	508.68
1991.00	486.83
1992.00	474.35
1993.00	465.77
1994.00	450.94
1995.00	447.04
1996.00	451.72
1997.00	464.21
1998.00	477.47
1999.00	479.03
2000.00	479.03
2001.00	484.49
2002.00	515.70
2003.00	517.26
2004.00	521.16
2005.00	483.71
2006.00	486.83
2007.00	477.47
2008.00	479.03
2009.00	477.47
2010.00	461.09
2011.00	452.50
2012.00	481.37
2013.00	506.34
2014.00	546.12
2015.00	538.32
2016.00	561.73
2017.00	582.01
2018.00	621.80
2019.00	654.57
2020.00	763.01
2021.00	924.51
2022.00	1146.86
2023.00	1395.74
2024.00	1916.90
2025.00	3506.90
2026.00	6612.79
2027.00	11800.98
2028.00	18576.83
2029.00	25111.61
2030.00	29459.54
2031.00	29974.46
2032.00	27952.24
2033.00	23973.33
2034.00	19124.52
2035.00	13976.90
2036.00	9472.15
2037.00	6227.39
2038.00	3944.58
2039.00	2487.21
2040.00	1634.47
2041.00	1178.07
2042.00	928.41
2043.00	769.26
2044.00	696.70
2045.00	667.83
2046.00	652.23
2047.00	634.29
>>>>>End Processed Spectral Data<<<<<
