SpectraSuite Data File
++++++++++++++++++++++++++++++++++++
Date: Thu Nov 16 13:55:19 EST 2017
User: cheriyan
Dark Spectrum Present: No
Reference Spectrum Present: No
Number of Sampled Component Spectra: 1
Spectrometers: USB2+H05261
Integration Time (usec): 100000 (USB2+H05261)
Spectra Averaged: 1 (USB2+H05261)
Boxcar Smoothing: 1 (USB2+H05261)
Correct for Electrical Dark: No (USB2+H05261)
Strobe/Lamp Enabled: No (USB2+H05261)
Correct for Detector Non-linearity: No (USB2+H05261)
Correct for Stray Light: No (USB2+H05261)
Number of Pixels in Processed Spectrum: 2048
>>>>>Begin Processed Spectral Data<<<<<
0.00	341.72
1.00	341.72
2.00	307.39
3.00	287.11
4.00	266.04
5.00	274.62
6.00	255.12
7.00	244.98
8.00	255.90
9.00	269.94
10.00	266.82
11.00	236.39
12.00	237.17
13.00	244.20
14.00	259.80
15.00	264.48
16.00	260.58
17.00	274.62
18.00	261.36
19.00	255.12
20.00	246.54
21.00	265.26
22.00	292.57
23.00	301.93
24.00	301.93
25.00	325.33
26.00	347.18
27.00	374.49
28.00	360.44
29.00	364.34
30.00	357.32
31.00	364.34
32.00	347.96
33.00	366.68
34.00	381.51
35.00	404.91
36.00	399.45
37.00	386.19
38.00	379.17
39.00	384.63
40.00	406.47
41.00	425.20
42.00	447.04
43.00	472.01
44.00	466.55
45.00	439.24
46.00	411.93
47.00	418.96
48.00	411.15
49.00	415.06
50.00	426.76
51.00	443.14
52.00	461.87
53.00	439.24
54.00	415.06
55.00	397.89
56.00	389.31
57.00	413.49
58.00	410.37
59.00	405.69
60.00	388.53
61.00	371.36
62.00	397.89
63.00	409.59
64.00	408.81
65.00	401.01
66.00	428.32
67.00	453.28
68.00	409.59
69.00	363.56
70.00	361.22
71.00	405.69
72.00	411.93
73.00	386.97
74.00	393.21
75.00	377.61
76.00	374.49
77.00	350.30
78.00	380.73
79.00	407.25
80.00	455.62
81.00	419.74
82.00	404.13
83.00	374.49
84.00	406.47
85.00	411.93
86.00	414.27
87.00	423.64
88.00	440.02
89.00	422.08
90.00	403.35
91.00	404.91
92.00	413.49
93.00	430.66
94.00	412.71
95.00	426.76
96.00	425.20
97.00	432.22
98.00	444.70
99.00	429.88
100.00	433.78
101.00	404.13
102.00	436.12
103.00	445.48
104.00	465.77
105.00	447.04
106.00	436.12
107.00	419.74
108.00	397.11
109.00	365.12
110.00	369.02
111.00	399.45
112.00	427.54
113.00	427.54
114.00	410.37
115.00	423.64
116.00	426.76
117.00	440.02
118.00	413.49
119.00	408.81
120.00	396.33
121.00	374.49
122.00	376.83
123.00	393.99
124.00	413.49
125.00	379.95
126.00	355.76
127.00	365.90
128.00	397.11
129.00	421.30
130.00	400.23
131.00	383.85
132.00	355.76
133.00	358.88
134.00	379.17
135.00	404.13
136.00	422.86
137.00	440.02
138.00	445.48
139.00	445.48
140.00	408.03
141.00	378.39
142.00	395.55
143.00	432.22
144.00	468.89
145.00	474.35
146.00	475.13
147.00	485.27
148.00	494.63
149.00	468.89
150.00	451.72
151.00	443.14
152.00	454.06
153.00	450.16
154.00	430.66
155.00	418.18
156.00	366.68
157.00	358.88
158.00	337.82
159.00	377.61
160.00	370.58
161.00	384.63
162.00	412.71
163.00	423.64
164.00	431.44
165.00	404.13
166.00	379.17
167.00	358.10
168.00	375.27
169.00	407.25
170.00	450.16
171.00	432.22
172.00	415.84
173.00	409.59
174.00	409.59
175.00	427.54
176.00	432.22
177.00	440.02
178.00	430.66
179.00	423.64
180.00	433.00
181.00	447.82
182.00	441.58
183.00	427.54
184.00	419.74
185.00	407.25
186.00	413.49
187.00	421.30
188.00	423.64
189.00	419.74
190.00	394.77
191.00	395.55
192.00	401.01
193.00	413.49
194.00	455.62
195.00	464.21
196.00	511.80
197.00	520.38
198.00	511.80
199.00	490.73
200.00	449.38
201.00	451.72
202.00	424.42
203.00	426.76
204.00	415.84
205.00	390.09
206.00	373.71
207.00	360.44
208.00	368.24
209.00	380.73
210.00	406.47
211.00	441.58
212.00	444.70
213.00	446.26
214.00	418.96
215.00	422.08
216.00	416.62
217.00	424.42
218.00	423.64
219.00	410.37
220.00	408.03
221.00	432.22
222.00	464.99
223.00	486.83
224.00	439.24
225.00	404.91
226.00	384.63
227.00	366.68
228.00	387.75
229.00	390.87
230.00	422.08
231.00	380.73
232.00	386.19
233.00	390.87
234.00	398.67
235.00	381.51
236.00	362.78
237.00	389.31
238.00	379.95
239.00	398.67
240.00	410.37
241.00	447.82
242.00	447.04
243.00	441.58
244.00	422.86
245.00	428.32
246.00	410.37
247.00	430.66
248.00	413.49
249.00	401.01
250.00	383.07
251.00	385.41
252.00	387.75
253.00	375.27
254.00	385.41
255.00	416.62
256.00	465.77
257.00	479.03
258.00	481.37
259.00	441.58
260.00	453.28
261.00	440.02
262.00	455.62
263.00	449.38
264.00	464.99
265.00	472.79
266.00	500.09
267.00	533.64
268.00	568.75
269.00	588.25
270.00	567.97
271.00	550.03
272.00	550.81
273.00	586.69
274.00	609.32
275.00	590.60
276.00	564.85
277.00	574.21
278.00	567.97
279.00	542.22
280.00	482.93
281.00	438.46
282.00	422.86
283.00	413.49
284.00	416.62
285.00	425.98
286.00	425.20
287.00	443.92
288.00	446.26
289.00	472.79
290.00	460.31
291.00	450.94
292.00	410.37
293.00	415.06
294.00	405.69
295.00	415.84
296.00	415.06
297.00	436.12
298.00	436.90
299.00	423.64
300.00	422.08
301.00	378.39
302.00	385.41
303.00	380.73
304.00	420.52
305.00	429.88
306.00	451.72
307.00	524.28
308.00	603.86
309.00	675.63
310.00	683.44
311.00	643.65
312.00	558.61
313.00	506.34
314.00	445.48
315.00	434.56
316.00	413.49
317.00	440.02
318.00	450.16
319.00	461.09
320.00	467.33
321.00	444.70
322.00	427.54
323.00	401.79
324.00	418.18
325.00	422.86
326.00	426.76
327.00	422.08
328.00	415.84
329.00	405.69
330.00	390.09
331.00	417.40
332.00	440.02
333.00	468.89
334.00	461.09
335.00	475.91
336.00	471.23
337.00	486.05
338.00	457.18
339.00	430.66
340.00	401.79
341.00	429.88
342.00	447.82
343.00	448.60
344.00	438.46
345.00	450.16
346.00	518.04
347.00	611.66
348.00	724.01
349.00	771.60
350.00	721.67
351.00	635.85
352.00	586.69
353.00	567.97
354.00	543.78
355.00	511.02
356.00	493.07
357.00	471.23
358.00	437.68
359.00	436.90
360.00	437.68
361.00	452.50
362.00	424.42
363.00	404.91
364.00	376.83
365.00	394.77
366.00	404.13
367.00	430.66
368.00	458.75
369.00	471.23
370.00	489.95
371.00	439.24
372.00	428.32
373.00	408.03
374.00	422.08
375.00	424.42
376.00	393.99
377.00	353.42
378.00	358.10
379.00	369.80
380.00	381.51
381.00	369.02
382.00	409.59
383.00	429.10
384.00	435.34
385.00	427.54
386.00	449.38
387.00	475.13
388.00	468.89
389.00	435.34
390.00	421.30
391.00	425.20
392.00	429.10
393.00	445.48
394.00	418.18
395.00	439.24
396.00	447.04
397.00	472.01
398.00	471.23
399.00	453.28
400.00	462.65
401.00	461.87
402.00	461.87
403.00	429.88
404.00	423.64
405.00	421.30
406.00	418.96
407.00	434.56
408.00	410.37
409.00	417.40
410.00	416.62
411.00	440.02
412.00	446.26
413.00	423.64
414.00	418.18
415.00	404.91
416.00	416.62
417.00	398.67
418.00	403.35
419.00	391.65
420.00	402.57
421.00	417.40
422.00	394.77
423.00	398.67
424.00	381.51
425.00	415.84
426.00	420.52
427.00	406.47
428.00	404.13
429.00	417.40
430.00	445.48
431.00	436.90
432.00	408.03
433.00	387.75
434.00	400.23
435.00	400.23
436.00	399.45
437.00	381.51
438.00	411.15
439.00	431.44
440.00	433.78
441.00	436.12
442.00	445.48
443.00	451.72
444.00	433.00
445.00	440.80
446.00	447.82
447.00	444.70
448.00	413.49
449.00	417.40
450.00	424.42
451.00	452.50
452.00	431.44
453.00	429.10
454.00	412.71
455.00	450.16
456.00	464.21
457.00	479.81
458.00	462.65
459.00	431.44
460.00	422.08
461.00	413.49
462.00	423.64
463.00	425.20
464.00	426.76
465.00	439.24
466.00	441.58
467.00	430.66
468.00	418.18
469.00	387.75
470.00	406.47
471.00	419.74
472.00	454.84
473.00	441.58
474.00	436.12
475.00	418.96
476.00	447.82
477.00	434.56
478.00	422.86
479.00	405.69
480.00	444.70
481.00	443.92
482.00	436.90
483.00	411.15
484.00	404.13
485.00	394.77
486.00	401.01
487.00	433.00
488.00	440.02
489.00	433.78
490.00	421.30
491.00	440.02
492.00	448.60
493.00	451.72
494.00	424.42
495.00	407.25
496.00	373.71
497.00	362.00
498.00	374.49
499.00	395.55
500.00	424.42
501.00	422.08
502.00	423.64
503.00	403.35
504.00	388.53
505.00	397.89
506.00	411.93
507.00	415.06
508.00	398.67
509.00	410.37
510.00	431.44
511.00	433.00
512.00	425.20
513.00	411.15
514.00	401.79
515.00	393.21
516.00	403.35
517.00	404.91
518.00	404.91
519.00	388.53
520.00	398.67
521.00	383.85
522.00	393.99
523.00	386.19
524.00	408.03
525.00	402.57
526.00	429.10
527.00	440.02
528.00	457.96
529.00	433.78
530.00	429.88
531.00	411.93
532.00	429.10
533.00	409.59
534.00	443.92
535.00	441.58
536.00	450.94
537.00	443.92
538.00	456.40
539.00	461.09
540.00	445.48
541.00	436.90
542.00	427.54
543.00	442.36
544.00	450.16
545.00	462.65
546.00	429.10
547.00	420.52
548.00	418.18
549.00	447.04
550.00	446.26
551.00	441.58
552.00	438.46
553.00	426.76
554.00	439.24
555.00	450.94
556.00	463.43
557.00	477.47
558.00	442.36
559.00	450.94
560.00	420.52
561.00	440.02
562.00	431.44
563.00	436.12
564.00	435.34
565.00	442.36
566.00	445.48
567.00	433.78
568.00	412.71
569.00	398.67
570.00	406.47
571.00	427.54
572.00	437.68
573.00	456.40
574.00	450.94
575.00	461.09
576.00	438.46
577.00	450.16
578.00	436.90
579.00	429.10
580.00	386.97
581.00	383.07
582.00	397.89
583.00	444.70
584.00	464.21
585.00	466.55
586.00	431.44
587.00	424.42
588.00	428.32
589.00	438.46
590.00	418.96
591.00	402.57
592.00	402.57
593.00	409.59
594.00	398.67
595.00	410.37
596.00	411.93
597.00	389.31
598.00	359.66
599.00	359.66
600.00	401.01
601.00	404.91
602.00	405.69
603.00	403.35
604.00	401.01
605.00	426.76
606.00	412.71
607.00	463.43
608.00	429.10
609.00	424.42
610.00	374.49
611.00	374.49
612.00	381.51
613.00	384.63
614.00	404.91
615.00	415.06
616.00	432.22
617.00	430.66
618.00	408.03
619.00	410.37
620.00	409.59
621.00	436.12
622.00	454.84
623.00	461.87
624.00	440.80
625.00	432.22
626.00	414.27
627.00	422.08
628.00	439.24
629.00	443.14
630.00	442.36
631.00	365.12
632.00	383.07
633.00	387.75
634.00	413.49
635.00	407.25
636.00	423.64
637.00	414.27
638.00	405.69
639.00	414.27
640.00	466.55
641.00	463.43
642.00	438.46
643.00	393.99
644.00	410.37
645.00	417.40
646.00	430.66
647.00	454.06
648.00	446.26
649.00	469.67
650.00	455.62
651.00	441.58
652.00	440.80
653.00	422.08
654.00	469.67
655.00	449.38
656.00	460.31
657.00	407.25
658.00	409.59
659.00	390.09
660.00	400.23
661.00	397.11
662.00	432.22
663.00	435.34
664.00	415.06
665.00	394.77
666.00	384.63
667.00	419.74
668.00	431.44
669.00	433.78
670.00	401.01
671.00	368.24
672.00	369.80
673.00	387.75
674.00	385.41
675.00	396.33
676.00	401.79
677.00	426.76
678.00	440.80
679.00	442.36
680.00	448.60
681.00	439.24
682.00	436.12
683.00	421.30
684.00	411.15
685.00	408.81
686.00	410.37
687.00	440.02
688.00	420.52
689.00	423.64
690.00	409.59
691.00	458.75
692.00	452.50
693.00	452.50
694.00	407.25
695.00	387.75
696.00	383.07
697.00	380.73
698.00	377.61
699.00	370.58
700.00	403.35
701.00	428.32
702.00	446.26
703.00	424.42
704.00	447.04
705.00	445.48
706.00	460.31
707.00	432.22
708.00	424.42
709.00	442.36
710.00	448.60
711.00	460.31
712.00	450.16
713.00	458.75
714.00	444.70
715.00	450.16
716.00	447.04
717.00	427.54
718.00	452.50
719.00	418.96
720.00	471.23
721.00	423.64
722.00	464.21
723.00	435.34
724.00	445.48
725.00	436.12
726.00	434.56
727.00	411.15
728.00	395.55
729.00	410.37
730.00	443.14
731.00	450.16
732.00	442.36
733.00	456.40
734.00	482.15
735.00	512.58
736.00	538.32
737.00	544.56
738.00	515.70
739.00	468.89
740.00	429.88
741.00	429.88
742.00	433.78
743.00	464.99
744.00	443.14
745.00	437.68
746.00	403.35
747.00	432.22
748.00	433.78
749.00	434.56
750.00	422.86
751.00	387.75
752.00	393.21
753.00	406.47
754.00	443.92
755.00	456.40
756.00	415.06
757.00	417.40
758.00	417.40
759.00	465.77
760.00	485.27
761.00	498.53
762.00	501.65
763.00	493.07
764.00	496.19
765.00	507.12
766.00	492.29
767.00	482.93
768.00	447.04
769.00	449.38
770.00	422.86
771.00	438.46
772.00	437.68
773.00	464.21
774.00	448.60
775.00	439.24
776.00	436.12
777.00	444.70
778.00	475.13
779.00	497.75
780.00	547.69
781.00	580.45
782.00	599.96
783.00	619.46
784.00	589.82
785.00	556.27
786.00	459.53
787.00	419.74
788.00	402.57
789.00	401.79
790.00	414.27
791.00	415.06
792.00	440.80
793.00	418.18
794.00	415.84
795.00	411.93
796.00	441.58
797.00	446.26
798.00	461.87
799.00	461.09
800.00	479.03
801.00	486.83
802.00	479.81
803.00	459.53
804.00	440.80
805.00	441.58
806.00	463.43
807.00	457.96
808.00	467.33
809.00	443.92
810.00	433.78
811.00	429.88
812.00	413.49
813.00	397.89
814.00	403.35
815.00	435.34
816.00	436.90
817.00	437.68
818.00	408.81
819.00	449.38
820.00	472.79
821.00	509.46
822.00	511.80
823.00	511.80
824.00	510.24
825.00	532.86
826.00	523.50
827.00	512.58
828.00	485.27
829.00	474.35
830.00	499.31
831.00	514.92
832.00	519.60
833.00	520.38
834.00	503.22
835.00	501.65
836.00	464.99
837.00	464.21
838.00	450.16
839.00	445.48
840.00	427.54
841.00	415.84
842.00	429.88
843.00	428.32
844.00	446.26
845.00	449.38
846.00	438.46
847.00	412.71
848.00	411.15
849.00	436.90
850.00	426.76
851.00	425.98
852.00	426.76
853.00	458.75
854.00	424.42
855.00	422.08
856.00	435.34
857.00	464.99
858.00	483.71
859.00	435.34
860.00	430.66
861.00	418.96
862.00	441.58
863.00	442.36
864.00	443.92
865.00	425.98
866.00	432.22
867.00	407.25
868.00	415.84
869.00	404.91
870.00	406.47
871.00	409.59
872.00	416.62
873.00	420.52
874.00	432.22
875.00	443.14
876.00	455.62
877.00	467.33
878.00	475.91
879.00	472.79
880.00	450.94
881.00	433.78
882.00	433.00
883.00	465.77
884.00	473.57
885.00	477.47
886.00	462.65
887.00	434.56
888.00	433.78
889.00	440.02
890.00	462.65
891.00	457.96
892.00	438.46
893.00	450.16
894.00	432.22
895.00	441.58
896.00	433.78
897.00	452.50
898.00	438.46
899.00	447.04
900.00	440.80
901.00	460.31
902.00	460.31
903.00	528.96
904.00	642.87
905.00	751.31
906.00	831.67
907.00	802.80
908.00	756.77
909.00	969.76
910.00	1009.55
911.00	1068.84
912.00	886.28
913.00	888.62
914.00	873.80
915.00	763.79
916.00	670.17
917.00	557.83
918.00	496.19
919.00	443.92
920.00	429.10
921.00	421.30
922.00	444.70
923.00	455.62
924.00	476.69
925.00	450.94
926.00	458.74
927.00	430.66
928.00	450.16
929.00	448.60
930.00	440.02
931.00	440.80
932.00	411.93
933.00	427.54
934.00	412.71
935.00	447.82
936.00	450.94
937.00	464.21
938.00	441.58
939.00	447.82
940.00	447.82
941.00	461.09
942.00	483.71
943.00	620.24
944.00	1067.28
945.00	1903.64
946.00	2891.34
947.00	3630.95
948.00	3696.49
949.00	3229.94
950.00	2399.05
951.00	1643.06
952.00	1082.11
953.00	752.87
954.00	568.75
955.00	471.23
956.00	431.44
957.00	459.53
958.00	465.77
959.00	496.97
960.00	484.49
961.00	476.69
962.00	449.38
963.00	443.92
964.00	459.53
965.00	476.69
966.00	517.26
967.00	514.14
968.00	511.02
969.00	484.49
970.00	493.07
971.00	468.11
972.00	452.50
973.00	418.96
974.00	442.36
975.00	460.31
976.00	455.62
977.00	455.62
978.00	464.21
979.00	500.87
980.00	479.81
981.00	469.67
982.00	453.28
983.00	463.43
984.00	431.44
985.00	413.49
986.00	407.25
987.00	422.08
988.00	461.87
989.00	465.77
990.00	427.54
991.00	421.30
992.00	413.49
993.00	443.92
994.00	415.06
995.00	421.30
996.00	421.30
997.00	434.56
998.00	425.20
999.00	438.46
1000.00	448.60
1001.00	460.31
1002.00	479.81
1003.00	483.71
1004.00	506.34
1005.00	493.07
1006.00	488.39
1007.00	443.92
1008.00	429.88
1009.00	422.86
1010.00	438.46
1011.00	447.04
1012.00	461.87
1013.00	475.13
1014.00	476.69
1015.00	444.70
1016.00	411.93
1017.00	409.59
1018.00	420.52
1019.00	466.55
1020.00	461.09
1021.00	454.84
1022.00	440.80
1023.00	447.04
1024.00	445.48
1025.00	445.48
1026.00	435.34
1027.00	461.09
1028.00	438.46
1029.00	440.02
1030.00	423.64
1031.00	429.10
1032.00	454.06
1033.00	460.31
1034.00	467.33
1035.00	453.28
1036.00	438.46
1037.00	440.80
1038.00	446.26
1039.00	447.04
1040.00	477.47
1041.00	482.93
1042.00	509.46
1043.00	511.02
1044.00	539.10
1045.00	574.21
1046.00	541.44
1047.00	507.90
1048.00	474.35
1049.00	472.01
1050.00	475.13
1051.00	443.14
1052.00	433.78
1053.00	436.12
1054.00	456.40
1055.00	470.45
1056.00	464.99
1057.00	437.68
1058.00	431.44
1059.00	407.25
1060.00	436.12
1061.00	425.20
1062.00	449.38
1063.00	443.14
1064.00	472.79
1065.00	460.31
1066.00	440.02
1067.00	439.24
1068.00	448.60
1069.00	451.72
1070.00	445.48
1071.00	449.38
1072.00	459.53
1073.00	464.21
1074.00	440.80
1075.00	426.76
1076.00	401.79
1077.00	415.84
1078.00	443.92
1079.00	491.51
1080.00	498.53
1081.00	479.81
1082.00	462.65
1083.00	443.14
1084.00	447.82
1085.00	449.38
1086.00	472.79
1087.00	469.67
1088.00	458.75
1089.00	442.36
1090.00	445.48
1091.00	422.86
1092.00	419.74
1093.00	428.32
1094.00	455.62
1095.00	469.67
1096.00	473.57
1097.00	469.67
1098.00	464.99
1099.00	485.27
1100.00	541.44
1101.00	602.30
1102.00	612.44
1103.00	582.01
1104.00	538.32
1105.00	499.31
1106.00	462.65
1107.00	442.36
1108.00	444.70
1109.00	454.06
1110.00	468.89
1111.00	450.16
1112.00	430.66
1113.00	407.25
1114.00	425.20
1115.00	452.50
1116.00	483.71
1117.00	481.37
1118.00	486.83
1119.00	461.87
1120.00	498.53
1121.00	497.75
1122.00	553.93
1123.00	518.82
1124.00	522.72
1125.00	472.01
1126.00	490.73
1127.00	474.35
1128.00	482.15
1129.00	461.87
1130.00	462.65
1131.00	457.96
1132.00	463.43
1133.00	473.57
1134.00	470.45
1135.00	469.67
1136.00	480.59
1137.00	515.70
1138.00	547.69
1139.00	563.29
1140.00	554.71
1141.00	529.74
1142.00	527.40
1143.00	520.38
1144.00	511.02
1145.00	481.37
1146.00	482.93
1147.00	500.09
1148.00	493.85
1149.00	475.13
1150.00	460.31
1151.00	477.47
1152.00	511.80
1153.00	519.60
1154.00	543.00
1155.00	570.31
1156.00	670.95
1157.00	734.15
1158.00	744.29
1159.00	672.51
1160.00	591.38
1161.00	586.69
1162.00	590.60
1163.00	672.51
1164.00	778.62
1165.00	1009.55
1166.00	1329.42
1167.00	1612.63
1168.00	1728.10
1169.00	1591.56
1170.00	1308.36
1171.00	1053.24
1172.00	867.56
1173.00	747.41
1174.00	633.50
1175.00	579.67
1176.00	581.23
1177.00	603.08
1178.00	578.89
1179.00	561.73
1180.00	599.96
1181.00	622.58
1182.00	609.32
1183.00	564.85
1184.00	576.55
1185.00	630.38
1186.00	656.91
1187.00	674.07
1188.00	670.17
1189.00	699.82
1190.00	759.11
1191.00	837.91
1192.00	891.74
1193.00	902.67
1194.00	899.55
1195.00	878.48
1196.00	837.13
1197.00	826.21
1198.00	863.66
1199.00	986.15
1200.00	1172.61
1201.00	1365.31
1202.00	1451.91
1203.00	1451.91
1204.00	1373.89
1205.00	1310.70
1206.00	1212.40
1207.00	1147.64
1208.00	1138.28
1209.00	1132.04
1210.00	1168.71
1211.00	1235.02
1212.00	1338.79
1213.00	1465.96
1214.00	1678.16
1215.00	1973.07
1216.00	2502.03
1217.00	5717.15
1218.00	21129.58
1219.00	41916.65
1220.00	59874.80
1221.00	65535.00
1222.00	65535.00
1223.00	65535.00
1224.00	65535.00
1225.00	65364.92
1226.00	56268.82
1227.00	40775.25
1228.00	22132.11
1229.00	10940.44
1230.00	5467.49
1231.00	3130.86
1232.00	2219.61
1233.00	1917.68
1234.00	1760.86
1235.00	1632.13
1236.00	2104.92
1237.00	3726.91
1238.00	7126.15
1239.00	11605.94
1240.00	15289.94
1241.00	16405.60
1242.00	14662.68
1243.00	11338.34
1244.00	7720.65
1245.00	4749.73
1246.00	2763.39
1247.00	1724.19
1248.00	1176.51
1249.00	974.44
1250.00	933.09
1251.00	1022.81
1252.00	1100.83
1253.00	1196.01
1254.00	1268.57
1255.00	1274.03
1256.00	1217.08
1257.00	1144.52
1258.00	1044.66
1259.00	958.84
1260.00	881.60
1261.00	850.39
1262.00	850.39
1263.00	851.95
1264.00	829.33
1265.00	819.97
1266.00	800.46
1267.00	803.58
1268.00	774.72
1269.00	760.67
1270.00	773.94
1271.00	800.46
1272.00	816.85
1273.00	823.09
1274.00	871.46
1275.00	1242.04
1276.00	2953.76
1277.00	7174.52
1278.00	14639.27
1279.00	22961.44
1280.00	28510.85
1281.00	28661.42
1282.00	24398.52
1283.00	17926.16
1284.00	11608.28
1285.00	6656.48
1286.00	3685.56
1287.00	2166.56
1288.00	1384.04
1289.00	1032.18
1290.00	900.33
1291.00	855.86
1292.00	864.44
1293.00	887.06
1294.00	915.93
1295.00	1089.91
1296.00	1742.92
1297.00	2997.45
1298.00	4772.35
1299.00	6222.70
1300.00	6798.48
1301.00	6226.61
1302.00	5046.98
1303.00	3664.50
1304.00	2485.65
1305.00	1607.95
1306.00	1157.78
1307.00	921.39
1308.00	836.35
1309.00	770.82
1310.00	737.27
1311.00	706.06
1312.00	681.10
1313.00	649.11
1314.00	621.80
1315.00	603.86
1316.00	602.30
1317.00	594.50
1318.00	603.08
1319.00	589.03
1320.00	563.29
1321.00	532.86
1322.00	529.74
1323.00	542.22
1324.00	568.75
1325.00	589.03
1326.00	565.63
1327.00	560.17
1328.00	581.23
1329.00	675.63
1330.00	1024.37
1331.00	1913.00
1332.00	3529.53
1333.00	5508.84
1334.00	7039.55
1335.00	7383.61
1336.00	6604.99
1337.00	5195.99
1338.00	3744.08
1339.00	2482.53
1340.00	1556.46
1341.00	1059.48
1342.00	788.76
1343.00	697.48
1344.00	640.53
1345.00	629.60
1346.00	624.14
1347.00	649.11
1348.00	631.16
1349.00	633.50
1350.00	624.14
1351.00	665.49
1352.00	689.68
1353.00	716.98
1354.00	745.07
1355.00	756.77
1356.00	767.70
1357.00	849.61
1358.00	1426.95
1359.00	3479.60
1360.00	7730.79
1361.00	14208.61
1362.00	20533.52
1363.00	23981.91
1364.00	22958.31
1365.00	19009.05
1366.00	13646.88
1367.00	8870.63
1368.00	5081.30
1369.00	2970.14
1370.00	1891.93
1371.00	1457.37
1372.00	2152.51
1373.00	5567.35
1374.00	12838.62
1375.00	24169.93
1376.00	35407.62
1377.00	42036.02
1378.00	40690.99
1379.00	33998.62
1380.00	24541.30
1381.00	15985.86
1382.00	8999.36
1383.00	4826.18
1384.00	2651.05
1385.00	1607.95
1386.00	1149.98
1387.00	923.73
1388.00	826.99
1389.00	849.61
1390.00	834.79
1391.00	856.64
1392.00	835.57
1393.00	848.05
1394.00	936.21
1395.00	1120.34
1396.00	1423.83
1397.00	1673.48
1398.00	1817.04
1399.00	1835.76
1400.00	1792.85
1401.00	1700.79
1402.00	2207.91
1403.00	5659.42
1404.00	14895.17
1405.00	30620.45
1406.00	46435.45
1407.00	56956.16
1408.00	58861.35
1409.00	54713.14
1410.00	44878.21
1411.00	31798.52
1412.00	19011.39
1413.00	10132.96
1414.00	5340.32
1415.00	3051.28
1416.00	2455.22
1417.00	3623.15
1418.00	6639.32
1419.00	11173.72
1420.00	15391.36
1421.00	17368.34
1422.00	16332.26
1423.00	13278.64
1424.00	9590.74
1425.00	6285.12
1426.00	3755.78
1427.00	2258.62
1428.00	1440.21
1429.00	1039.98
1430.00	898.77
1431.00	847.27
1432.00	869.90
1433.00	841.03
1434.00	842.59
1435.00	789.54
1436.00	780.18
1437.00	702.16
1438.00	661.59
1439.00	614.00
1440.00	627.26
1441.00	635.85
1442.00	635.07
1443.00	603.08
1444.00	585.13
1445.00	599.18
1446.00	603.08
1447.00	651.45
1448.00	673.29
1449.00	696.70
1450.00	725.57
1451.00	1001.75
1452.00	1911.44
1453.00	3691.81
1454.00	6275.76
1455.00	8794.17
1456.00	10167.29
1457.00	9887.20
1458.00	8472.74
1459.00	6427.89
1460.00	4437.66
1461.00	2684.59
1462.00	1650.08
1463.00	1108.63
1464.00	872.24
1465.00	756.77
1466.00	686.56
1467.00	649.89
1468.00	623.36
1469.00	609.32
1470.00	603.86
1471.00	614.78
1472.00	623.36
1473.00	606.98
1474.00	609.32
1475.00	592.16
1476.00	626.48
1477.00	614.78
1478.00	666.27
1479.00	674.85
1480.00	690.46
1481.00	707.62
1482.00	797.34
1483.00	1230.34
1484.00	3078.58
1485.00	7609.08
1486.00	15769.75
1487.00	25618.72
1488.00	33426.75
1489.00	35446.63
1490.00	32017.75
1491.00	25158.42
1492.00	17536.07
1493.00	10750.08
1494.00	5909.85
1495.00	3271.29
1496.00	1902.86
1497.00	1220.98
1498.00	866.78
1499.00	726.35
1500.00	685.00
1501.00	692.02
1502.00	660.81
1503.00	641.31
1504.00	621.02
1505.00	621.80
1506.00	618.68
1507.00	614.00
1508.00	679.54
1509.00	930.75
1510.00	1785.05
1511.00	3245.54
1512.00	5481.53
1513.00	7507.66
1514.00	8670.90
1515.00	8455.58
1516.00	7235.38
1517.00	5566.57
1518.00	3833.02
1519.00	2434.16
1520.00	1528.37
1521.00	1075.09
1522.00	865.22
1523.00	773.94
1524.00	700.60
1525.00	660.03
1526.00	685.00
1527.00	780.96
1528.00	1056.36
1529.00	2062.79
1530.00	4658.45
1531.00	9460.45
1532.00	15710.46
1533.00	21143.62
1534.00	23408.48
1535.00	21901.17
1536.00	17951.91
1537.00	13028.20
1538.00	8493.02
1539.00	4908.10
1540.00	2809.42
1541.00	1696.89
1542.00	1192.11
1543.00	912.81
1544.00	806.70
1545.00	731.03
1546.00	727.13
1547.00	716.98
1548.00	697.48
1549.00	670.95
1550.00	637.41
1551.00	665.49
1552.00	671.73
1553.00	709.18
1554.00	692.80
1555.00	730.25
1556.00	763.79
1557.00	786.42
1558.00	831.67
1559.00	853.52
1560.00	967.42
1561.00	1664.12
1562.00	4631.14
1563.00	11227.55
1564.00	21989.33
1565.00	33770.81
1566.00	42238.09
1567.00	43592.48
1568.00	38912.97
1569.00	30525.27
1570.00	21444.77
1571.00	13280.20
1572.00	7536.53
1573.00	4441.56
1574.00	3910.25
1575.00	7576.31
1576.00	17123.36
1577.00	32678.56
1578.00	47560.47
1579.00	57094.25
1580.00	58328.49
1581.00	54409.65
1582.00	45439.94
1583.00	33039.78
1584.00	20367.34
1585.00	11053.57
1586.00	5927.80
1587.00	3255.69
1588.00	1915.34
1589.00	1335.67
1590.00	1048.56
1591.00	906.57
1592.00	807.48
1593.00	732.59
1594.00	710.74
1595.00	684.22
1596.00	693.58
1597.00	668.61
1598.00	616.34
1599.00	590.60
1600.00	592.94
1601.00	642.09
1602.00	630.38
1603.00	605.42
1604.00	568.75
1605.00	575.77
1606.00	596.06
1607.00	574.21
1608.00	549.25
1609.00	526.62
1610.00	552.37
1611.00	564.07
1612.00	585.13
1613.00	570.31
1614.00	555.49
1615.00	518.82
1616.00	522.72
1617.00	537.54
1618.00	560.95
1619.00	551.59
1620.00	566.41
1621.00	560.17
1622.00	584.35
1623.00	558.61
1624.00	560.17
1625.00	549.25
1626.00	560.95
1627.00	572.65
1628.00	580.45
1629.00	564.85
1630.00	539.10
1631.00	540.66
1632.00	553.15
1633.00	582.01
1634.00	595.28
1635.00	631.94
1636.00	614.00
1637.00	616.34
1638.00	604.64
1639.00	627.26
1640.00	609.32
1641.00	614.78
1642.00	617.12
1643.00	686.56
1644.00	795.78
1645.00	1365.31
1646.00	3481.16
1647.00	8188.75
1648.00	16099.76
1649.00	25390.91
1650.00	32824.45
1651.00	34999.59
1652.00	32294.71
1653.00	26320.88
1654.00	19247.79
1655.00	12387.68
1656.00	7045.01
1657.00	3947.70
1658.00	2287.48
1659.00	1414.46
1660.00	979.90
1661.00	812.95
1662.00	804.36
1663.00	876.92
1664.00	1448.79
1665.00	2851.55
1666.00	5314.58
1667.00	8390.82
1668.00	11083.22
1669.00	12191.85
1670.00	11478.77
1671.00	9625.84
1672.00	7312.61
1673.00	5046.20
1674.00	3118.37
1675.00	1905.20
1676.00	1242.82
1677.00	884.72
1678.00	708.40
1679.00	626.48
1680.00	607.76
1681.00	551.59
1682.00	517.26
1683.00	489.17
1684.00	529.74
1685.00	521.94
1686.00	497.75
1687.00	482.15
1688.00	491.51
1689.00	516.48
1690.00	535.20
1691.00	555.49
1692.00	579.67
1693.00	532.08
1694.00	519.60
1695.00	501.65
1696.00	552.37
1697.00	554.71
1698.00	560.17
1699.00	558.61
1700.00	562.51
1701.00	572.65
1702.00	550.81
1703.00	578.89
1704.00	592.16
1705.00	608.54
1706.00	600.74
1707.00	588.25
1708.00	627.26
1709.00	890.96
1710.00	1876.33
1711.00	4063.95
1712.00	7641.07
1713.00	12031.13
1714.00	15595.77
1715.00	17139.74
1716.00	16113.03
1717.00	13532.20
1718.00	10147.78
1719.00	6923.30
1720.00	4301.90
1721.00	2607.36
1722.00	1622.77
1723.00	1103.95
1724.00	841.03
1725.00	685.00
1726.00	604.64
1727.00	557.83
1728.00	540.66
1729.00	539.88
1730.00	516.48
1731.00	546.12
1732.00	530.52
1733.00	525.84
1734.00	516.48
1735.00	523.50
1736.00	502.43
1737.00	501.65
1738.00	492.29
1739.00	538.32
1740.00	520.38
1741.00	537.54
1742.00	519.60
1743.00	543.00
1744.00	525.84
1745.00	511.80
1746.00	510.24
1747.00	528.96
1748.00	526.62
1749.00	544.56
1750.00	555.49
1751.00	589.81
1752.00	559.39
1753.00	547.69
1754.00	523.50
1755.00	555.49
1756.00	566.41
1757.00	599.18
1758.00	570.31
1759.00	559.39
1760.00	551.59
1761.00	581.23
1762.00	610.10
1763.00	693.58
1764.00	840.25
1765.00	1514.33
1766.00	3683.22
1767.00	8029.60
1768.00	15026.24
1769.00	22802.28
1770.00	28784.69
1771.00	30348.95
1772.00	27793.86
1773.00	22695.39
1774.00	16748.87
1775.00	11126.91
1776.00	6684.57
1777.00	3835.36
1778.00	2238.33
1779.00	1404.32
1780.00	1039.20
1781.00	822.31
1782.00	734.15
1783.00	679.54
1784.00	637.41
1785.00	611.66
1786.00	580.45
1787.00	578.11
1788.00	590.60
1789.00	614.78
1790.00	649.11
1791.00	680.32
1792.00	856.64
1793.00	1608.73
1794.00	3525.63
1795.00	6896.00
1796.00	11644.95
1797.00	16104.45
1798.00	18697.76
1799.00	18348.24
1800.00	15957.77
1801.00	12458.67
1802.00	8917.44
1803.00	5751.48
1804.00	3513.92
1805.00	2085.42
1806.00	1300.56
1807.00	884.72
1808.00	700.60
1809.00	615.56
1810.00	592.16
1811.00	535.20
1812.00	557.83
1813.00	550.81
1814.00	579.67
1815.00	543.00
1816.00	537.54
1817.00	529.74
1818.00	523.50
1819.00	500.87
1820.00	519.60
1821.00	553.15
1822.00	609.32
1823.00	649.89
1824.00	659.25
1825.00	668.61
1826.00	615.56
1827.00	584.35
1828.00	533.64
1829.00	501.65
1830.00	486.05
1831.00	493.07
1832.00	485.27
1833.00	464.99
1834.00	425.98
1835.00	417.40
1836.00	430.66
1837.00	452.50
1838.00	456.40
1839.00	447.04
1840.00	450.94
1841.00	454.84
1842.00	449.38
1843.00	425.20
1844.00	402.57
1845.00	387.75
1846.00	406.47
1847.00	419.74
1848.00	410.37
1849.00	393.99
1850.00	386.97
1851.00	418.18
1852.00	426.76
1853.00	434.56
1854.00	450.16
1855.00	443.92
1856.00	447.82
1857.00	435.34
1858.00	447.04
1859.00	427.54
1860.00	425.98
1861.00	446.26
1862.00	464.99
1863.00	469.67
1864.00	458.74
1865.00	450.16
1866.00	434.56
1867.00	418.96
1868.00	415.06
1869.00	420.52
1870.00	430.66
1871.00	399.45
1872.00	401.79
1873.00	380.73
1874.00	438.46
1875.00	462.65
1876.00	472.01
1877.00	446.26
1878.00	401.79
1879.00	410.37
1880.00	440.80
1881.00	450.16
1882.00	454.06
1883.00	449.38
1884.00	477.47
1885.00	473.57
1886.00	473.57
1887.00	481.37
1888.00	472.79
1889.00	459.53
1890.00	440.80
1891.00	468.11
1892.00	464.21
1893.00	432.22
1894.00	401.79
1895.00	414.27
1896.00	427.54
1897.00	409.59
1898.00	386.97
1899.00	396.33
1900.00	409.59
1901.00	412.71
1902.00	425.98
1903.00	443.92
1904.00	452.50
1905.00	462.65
1906.00	482.93
1907.00	546.12
1908.00	628.82
1909.00	670.17
1910.00	668.61
1911.00	627.26
1912.00	596.06
1913.00	554.71
1914.00	498.53
1915.00	491.51
1916.00	468.89
1917.00	472.01
1918.00	459.53
1919.00	471.23
1920.00	465.77
1921.00	451.72
1922.00	454.06
1923.00	472.79
1924.00	475.13
1925.00	479.81
1926.00	438.46
1927.00	434.56
1928.00	432.22
1929.00	472.01
1930.00	477.47
1931.00	479.03
1932.00	476.69
1933.00	471.23
1934.00	462.65
1935.00	480.59
1936.00	509.46
1937.00	523.50
1938.00	490.73
1939.00	465.77
1940.00	472.79
1941.00	475.91
1942.00	503.22
1943.00	483.71
1944.00	504.00
1945.00	496.19
1946.00	555.49
1947.00	875.36
1948.00	1933.28
1949.00	3922.74
1950.00	7035.65
1951.00	10551.14
1952.00	13451.84
1953.00	14498.84
1954.00	13675.75
1955.00	11755.73
1956.00	9273.20
1957.00	6853.09
1958.00	4650.64
1959.00	3148.80
1960.00	2063.57
1961.00	1373.89
1962.00	941.68
1963.00	750.53
1964.00	666.27
1965.00	614.78
1966.00	555.49
1967.00	513.36
1968.00	480.59
1969.00	483.71
1970.00	484.49
1971.00	484.49
1972.00	475.91
1973.00	487.61
1974.00	551.59
1975.00	625.70
1976.00	745.85
1977.00	888.62
1978.00	1096.15
1979.00	1238.14
1980.00	1320.84
1981.00	1240.48
1982.00	1128.14
1983.00	961.18
1984.00	838.69
1985.00	692.02
1986.00	609.32
1987.00	553.15
1988.00	535.98
1989.00	500.09
1990.00	473.57
1991.00	460.31
1992.00	443.92
1993.00	438.46
1994.00	443.14
1995.00	455.62
1996.00	452.50
1997.00	428.32
1998.00	474.35
1999.00	472.01
2000.00	515.70
2001.00	503.22
2002.00	561.73
2003.00	553.93
2004.00	528.18
2005.00	493.07
2006.00	496.19
2007.00	500.09
2008.00	486.05
2009.00	480.59
2010.00	487.61
2011.00	512.58
2012.00	541.44
2013.00	550.03
2014.00	521.94
2015.00	490.73
2016.00	493.07
2017.00	519.60
2018.00	571.87
2019.00	617.12
2020.00	754.43
2021.00	887.84
2022.00	1146.86
2023.00	1383.26
2024.00	1974.63
2025.00	3519.39
2026.00	6736.06
2027.00	11896.16
2028.00	18691.52
2029.00	25194.31
2030.00	29574.23
2031.00	30213.20
2032.00	28098.91
2033.00	24044.32
2034.00	19027.00
2035.00	13923.85
2036.00	9472.15
2037.00	6233.63
2038.00	3882.17
2039.00	2385.79
2040.00	1536.95
2041.00	1132.82
2042.00	922.95
2043.00	802.80
2044.00	716.98
2045.00	650.67
2046.00	624.92
2047.00	641.31
>>>>>End Processed Spectral Data<<<<<
