SpectraSuite Data File
++++++++++++++++++++++++++++++++++++
Date: Thu Nov 16 13:55:12 EST 2017
User: cheriyan
Dark Spectrum Present: No
Reference Spectrum Present: No
Number of Sampled Component Spectra: 1
Spectrometers: USB2+H05261
Integration Time (usec): 100000 (USB2+H05261)
Spectra Averaged: 1 (USB2+H05261)
Boxcar Smoothing: 1 (USB2+H05261)
Correct for Electrical Dark: No (USB2+H05261)
Strobe/Lamp Enabled: No (USB2+H05261)
Correct for Detector Non-linearity: No (USB2+H05261)
Correct for Stray Light: No (USB2+H05261)
Number of Pixels in Processed Spectrum: 2048
>>>>>Begin Processed Spectral Data<<<<<
0.00	311.29
1.00	311.29
2.00	292.57
3.00	270.72
4.00	248.10
5.00	239.51
6.00	216.11
7.00	241.86
8.00	244.98
9.00	271.50
10.00	259.80
11.00	250.44
12.00	245.76
13.00	207.53
14.00	214.55
15.00	226.25
16.00	232.49
17.00	237.17
18.00	263.70
19.00	284.77
20.00	297.25
21.00	253.56
22.00	270.72
23.00	287.11
24.00	313.63
25.00	349.52
26.00	338.60
27.00	373.71
28.00	356.54
29.00	382.29
30.00	375.27
31.00	375.27
32.00	367.46
33.00	373.71
34.00	392.43
35.00	413.49
36.00	399.45
37.00	376.05
38.00	362.78
39.00	401.79
40.00	404.91
41.00	423.64
42.00	412.71
43.00	437.68
44.00	447.04
45.00	420.52
46.00	418.96
47.00	395.55
48.00	418.18
49.00	415.06
50.00	435.34
51.00	421.30
52.00	440.02
53.00	403.35
54.00	401.79
55.00	369.02
56.00	397.11
57.00	389.31
58.00	394.77
59.00	380.73
60.00	399.45
61.00	420.52
62.00	437.68
63.00	434.56
64.00	406.47
65.00	388.53
66.00	377.61
67.00	383.07
68.00	396.33
69.00	413.49
70.00	440.02
71.00	447.82
72.00	423.64
73.00	407.25
74.00	394.77
75.00	395.55
76.00	372.15
77.00	369.80
78.00	388.53
79.00	404.13
80.00	401.01
81.00	406.47
82.00	432.22
83.00	423.64
84.00	419.74
85.00	362.00
86.00	375.27
87.00	381.51
88.00	447.04
89.00	429.88
90.00	427.54
91.00	400.23
92.00	415.06
93.00	431.44
94.00	439.24
95.00	441.58
96.00	410.37
97.00	386.19
98.00	392.43
99.00	393.21
100.00	403.35
101.00	389.31
102.00	415.84
103.00	421.30
104.00	433.00
105.00	417.40
106.00	401.79
107.00	384.63
108.00	406.47
109.00	433.78
110.00	444.70
111.00	409.59
112.00	378.39
113.00	376.83
114.00	360.44
115.00	380.73
116.00	393.99
117.00	420.52
118.00	408.03
119.00	385.41
120.00	367.46
121.00	369.02
122.00	390.87
123.00	386.97
124.00	399.45
125.00	400.23
126.00	409.59
127.00	396.33
128.00	395.55
129.00	414.27
130.00	433.78
131.00	438.46
132.00	397.89
133.00	391.65
134.00	368.24
135.00	409.59
136.00	432.22
137.00	426.76
138.00	415.84
139.00	397.89
140.00	423.64
141.00	433.00
142.00	432.22
143.00	427.54
144.00	411.15
145.00	431.44
146.00	447.04
147.00	494.63
148.00	472.01
149.00	472.79
150.00	427.54
151.00	433.00
152.00	416.62
153.00	432.22
154.00	433.78
155.00	432.22
156.00	417.40
157.00	404.91
158.00	425.20
159.00	438.46
160.00	443.92
161.00	429.10
162.00	410.37
163.00	411.93
164.00	415.06
165.00	429.10
166.00	425.98
167.00	405.69
168.00	399.45
169.00	410.37
170.00	423.64
171.00	424.42
172.00	407.25
173.00	383.85
174.00	369.80
175.00	369.02
176.00	374.49
177.00	378.39
178.00	369.80
179.00	379.95
180.00	376.05
181.00	376.05
182.00	373.71
183.00	392.43
184.00	396.33
185.00	401.79
186.00	392.43
187.00	386.97
188.00	398.67
189.00	429.88
190.00	475.91
191.00	454.06
192.00	418.18
193.00	386.19
194.00	445.48
195.00	509.46
196.00	553.93
197.00	535.20
198.00	496.97
199.00	490.73
200.00	468.11
201.00	452.50
202.00	406.47
203.00	396.33
204.00	402.57
205.00	416.62
206.00	415.06
207.00	412.71
208.00	404.91
209.00	404.91
210.00	402.57
211.00	417.40
212.00	440.02
213.00	429.10
214.00	425.20
215.00	410.37
216.00	399.45
217.00	406.47
218.00	419.74
219.00	441.58
220.00	439.24
221.00	418.18
222.00	404.13
223.00	399.45
224.00	406.47
225.00	433.78
226.00	423.64
227.00	429.88
228.00	415.06
229.00	399.45
230.00	396.33
231.00	397.89
232.00	415.84
233.00	412.71
234.00	406.47
235.00	410.37
236.00	409.59
237.00	420.52
238.00	411.93
239.00	427.54
240.00	430.66
241.00	433.00
242.00	415.84
243.00	419.74
244.00	422.86
245.00	425.20
246.00	419.74
247.00	420.52
248.00	428.32
249.00	422.08
250.00	415.06
251.00	392.43
252.00	385.41
253.00	393.99
254.00	435.34
255.00	455.62
256.00	461.09
257.00	440.02
258.00	474.35
259.00	470.45
260.00	434.56
261.00	369.02
262.00	365.90
263.00	408.81
264.00	422.08
265.00	433.00
266.00	461.09
267.00	532.86
268.00	586.69
269.00	584.35
270.00	563.29
271.00	567.19
272.00	577.33
273.00	599.18
274.00	565.63
275.00	557.05
276.00	546.91
277.00	539.10
278.00	510.24
279.00	493.85
280.00	500.09
281.00	500.09
282.00	462.65
283.00	422.86
284.00	413.49
285.00	401.01
286.00	388.53
287.00	397.11
288.00	408.03
289.00	440.80
290.00	409.59
291.00	400.23
292.00	401.79
293.00	414.27
294.00	419.74
295.00	426.76
296.00	436.90
297.00	465.77
298.00	447.04
299.00	454.84
300.00	422.08
301.00	416.62
302.00	405.69
303.00	435.34
304.00	429.88
305.00	483.71
306.00	493.07
307.00	550.03
308.00	586.69
309.00	636.63
310.00	651.45
311.00	599.96
312.00	539.88
313.00	489.95
314.00	431.44
315.00	410.37
316.00	401.79
317.00	418.96
318.00	429.10
319.00	417.40
320.00	428.32
321.00	388.53
322.00	390.09
323.00	358.88
324.00	393.21
325.00	396.33
326.00	422.08
327.00	422.86
328.00	442.36
329.00	436.12
330.00	420.52
331.00	419.74
332.00	424.42
333.00	433.00
334.00	426.76
335.00	433.00
336.00	461.09
337.00	461.87
338.00	441.58
339.00	406.47
340.00	407.25
341.00	454.06
342.00	456.40
343.00	441.58
344.00	429.88
345.00	474.35
346.00	551.59
347.00	641.31
348.00	721.67
349.00	727.13
350.00	679.54
351.00	609.32
352.00	552.37
353.00	511.80
354.00	504.00
355.00	518.82
356.00	511.80
357.00	488.39
358.00	456.40
359.00	437.68
360.00	422.86
361.00	401.01
362.00	408.03
363.00	405.69
364.00	428.32
365.00	423.64
366.00	423.64
367.00	398.67
368.00	418.18
369.00	422.86
370.00	461.87
371.00	457.18
372.00	458.75
373.00	461.87
374.00	440.80
375.00	424.42
376.00	396.33
377.00	389.31
378.00	390.09
379.00	399.45
380.00	431.44
381.00	443.14
382.00	439.24
383.00	421.30
384.00	406.47
385.00	414.27
386.00	409.59
387.00	440.02
388.00	425.98
389.00	415.06
390.00	381.51
391.00	376.83
392.00	379.17
393.00	408.81
394.00	416.62
395.00	452.50
396.00	433.78
397.00	426.76
398.00	393.99
399.00	415.84
400.00	440.02
401.00	464.21
402.00	452.50
403.00	435.34
404.00	448.60
405.00	465.77
406.00	451.72
407.00	413.49
408.00	375.27
409.00	378.39
410.00	382.29
411.00	384.63
412.00	404.91
413.00	428.32
414.00	457.18
415.00	454.84
416.00	443.92
417.00	407.25
418.00	393.21
419.00	383.07
420.00	390.87
421.00	385.41
422.00	382.29
423.00	401.01
424.00	429.88
425.00	447.04
426.00	434.56
427.00	412.71
428.00	413.49
429.00	431.44
430.00	437.68
431.00	431.44
432.00	419.74
433.00	410.37
434.00	427.54
435.00	422.86
436.00	426.76
437.00	408.81
438.00	404.91
439.00	390.87
440.00	395.55
441.00	414.27
442.00	427.54
443.00	437.68
444.00	447.82
445.00	472.79
446.00	439.24
447.00	429.10
448.00	418.96
449.00	439.24
450.00	429.88
451.00	431.44
452.00	429.10
453.00	441.58
454.00	405.69
455.00	391.65
456.00	364.34
457.00	387.75
458.00	402.57
459.00	429.88
460.00	433.00
461.00	451.72
462.00	451.72
463.00	444.70
464.00	400.23
465.00	401.01
466.00	415.84
467.00	468.11
468.00	470.45
469.00	471.23
470.00	462.65
471.00	454.84
472.00	443.92
473.00	413.49
474.00	421.30
475.00	418.96
476.00	430.66
477.00	401.79
478.00	390.87
479.00	390.09
480.00	416.62
481.00	440.02
482.00	436.90
483.00	423.64
484.00	407.25
485.00	402.57
486.00	393.99
487.00	389.31
488.00	413.49
489.00	440.02
490.00	423.64
491.00	397.11
492.00	374.49
493.00	422.86
494.00	456.40
495.00	465.77
496.00	452.50
497.00	433.00
498.00	428.32
499.00	426.76
500.00	442.36
501.00	440.02
502.00	422.86
503.00	386.19
504.00	371.36
505.00	375.27
506.00	403.35
507.00	418.96
508.00	447.82
509.00	436.12
510.00	432.22
511.00	388.53
512.00	401.79
513.00	412.71
514.00	433.78
515.00	436.12
516.00	423.64
517.00	431.44
518.00	397.11
519.00	402.57
520.00	365.90
521.00	391.65
522.00	399.45
523.00	432.22
524.00	424.42
525.00	443.92
526.00	442.36
527.00	465.77
528.00	434.56
529.00	462.65
530.00	439.24
531.00	447.82
532.00	443.92
533.00	450.94
534.00	450.16
535.00	417.40
536.00	405.69
537.00	412.71
538.00	442.36
539.00	455.62
540.00	440.02
541.00	422.08
542.00	425.98
543.00	435.34
544.00	436.90
545.00	414.27
546.00	417.40
547.00	437.68
548.00	461.09
549.00	440.80
550.00	451.72
551.00	446.26
552.00	462.65
553.00	440.80
554.00	464.21
555.00	479.81
556.00	461.87
557.00	443.14
558.00	427.54
559.00	434.56
560.00	400.23
561.00	397.89
562.00	382.29
563.00	415.06
564.00	436.12
565.00	432.22
566.00	423.64
567.00	411.15
568.00	450.16
569.00	430.66
570.00	443.14
571.00	436.90
572.00	460.31
573.00	454.84
574.00	455.62
575.00	453.28
576.00	455.62
577.00	420.52
578.00	394.77
579.00	359.66
580.00	378.39
581.00	383.07
582.00	390.09
583.00	405.69
584.00	406.47
585.00	450.16
586.00	442.36
587.00	446.26
588.00	426.76
589.00	443.14
590.00	442.36
591.00	428.32
592.00	396.33
593.00	411.15
594.00	434.56
595.00	450.16
596.00	443.92
597.00	407.25
598.00	401.01
599.00	397.11
600.00	427.54
601.00	411.15
602.00	432.22
603.00	415.84
604.00	424.42
605.00	407.25
606.00	404.13
607.00	422.08
608.00	406.47
609.00	393.99
610.00	384.63
611.00	393.99
612.00	385.41
613.00	368.24
614.00	376.83
615.00	397.11
616.00	418.96
617.00	422.86
618.00	412.71
619.00	398.67
620.00	414.27
621.00	449.38
622.00	475.91
623.00	437.68
624.00	401.01
625.00	400.23
626.00	401.79
627.00	422.86
628.00	393.99
629.00	449.38
630.00	441.58
631.00	454.06
632.00	433.00
633.00	445.48
634.00	441.58
635.00	419.74
636.00	429.88
637.00	425.20
638.00	433.00
639.00	422.86
640.00	426.76
641.00	446.26
642.00	436.90
643.00	448.60
644.00	416.62
645.00	415.06
646.00	403.35
647.00	413.49
648.00	420.52
649.00	406.47
650.00	423.64
651.00	410.37
652.00	415.06
653.00	405.69
654.00	444.70
655.00	461.87
656.00	483.71
657.00	458.75
658.00	443.14
659.00	410.37
660.00	414.27
661.00	421.30
662.00	449.38
663.00	459.53
664.00	433.00
665.00	407.25
666.00	391.65
667.00	414.27
668.00	457.96
669.00	477.47
670.00	493.07
671.00	427.54
672.00	377.61
673.00	373.71
674.00	396.33
675.00	405.69
676.00	374.49
677.00	369.02
678.00	404.13
679.00	454.84
680.00	482.93
681.00	474.35
682.00	454.84
683.00	436.12
684.00	436.90
685.00	418.18
686.00	412.71
687.00	396.33
688.00	423.64
689.00	432.22
690.00	454.84
691.00	445.48
692.00	455.62
693.00	428.32
694.00	418.96
695.00	397.89
696.00	403.35
697.00	436.90
698.00	448.60
699.00	443.14
700.00	425.20
701.00	438.46
702.00	458.75
703.00	431.44
704.00	397.89
705.00	391.65
706.00	408.81
707.00	395.55
708.00	384.63
709.00	385.41
710.00	417.40
711.00	415.06
712.00	417.40
713.00	403.35
714.00	432.22
715.00	449.38
716.00	495.41
717.00	468.11
718.00	476.69
719.00	424.42
720.00	416.62
721.00	390.87
722.00	409.59
723.00	452.50
724.00	457.18
725.00	461.87
726.00	445.48
727.00	448.60
728.00	422.86
729.00	434.56
730.00	449.38
731.00	469.67
732.00	468.11
733.00	467.33
734.00	472.01
735.00	468.11
736.00	451.72
737.00	461.87
738.00	475.13
739.00	474.35
740.00	475.91
741.00	457.18
742.00	445.48
743.00	431.44
744.00	424.42
745.00	435.34
746.00	444.70
747.00	433.78
748.00	425.98
749.00	435.34
750.00	466.55
751.00	470.45
752.00	454.06
753.00	433.78
754.00	440.02
755.00	454.84
756.00	468.11
757.00	483.71
758.00	466.55
759.00	469.67
760.00	475.91
761.00	488.39
762.00	508.68
763.00	506.34
764.00	508.68
765.00	489.17
766.00	479.81
767.00	457.96
768.00	414.27
769.00	390.87
770.00	397.11
771.00	426.76
772.00	429.88
773.00	453.28
774.00	462.65
775.00	472.79
776.00	446.26
777.00	431.44
778.00	446.26
779.00	461.09
780.00	507.12
781.00	532.86
782.00	558.61
783.00	610.88
784.00	589.03
785.00	574.99
786.00	469.67
787.00	425.20
788.00	397.89
789.00	411.93
790.00	422.08
791.00	440.02
792.00	415.84
793.00	411.93
794.00	390.09
795.00	409.59
796.00	424.42
797.00	433.78
798.00	433.78
799.00	447.82
800.00	453.28
801.00	457.96
802.00	458.74
803.00	456.40
804.00	465.77
805.00	455.62
806.00	464.99
807.00	448.60
808.00	451.72
809.00	433.00
810.00	470.45
811.00	438.46
812.00	439.24
813.00	376.05
814.00	390.09
815.00	394.77
816.00	416.62
817.00	422.86
818.00	425.98
819.00	433.78
820.00	445.48
821.00	452.50
822.00	507.12
823.00	535.98
824.00	556.27
825.00	499.31
826.00	458.75
827.00	428.32
828.00	407.25
829.00	415.84
830.00	444.70
831.00	492.29
832.00	494.63
833.00	497.75
834.00	485.27
835.00	489.17
836.00	456.40
837.00	453.28
838.00	471.23
839.00	474.35
840.00	468.89
841.00	461.87
842.00	477.47
843.00	472.79
844.00	447.82
845.00	428.32
846.00	447.04
847.00	450.94
848.00	447.04
849.00	418.18
850.00	398.67
851.00	391.65
852.00	404.13
853.00	413.49
854.00	418.96
855.00	417.40
856.00	420.52
857.00	428.32
858.00	437.68
859.00	424.42
860.00	408.03
861.00	386.97
862.00	397.11
863.00	404.91
864.00	406.47
865.00	422.86
866.00	432.22
867.00	432.22
868.00	411.93
869.00	406.47
870.00	427.54
871.00	443.92
872.00	451.72
873.00	464.99
874.00	457.18
875.00	428.32
876.00	380.73
877.00	376.83
878.00	402.57
879.00	405.69
880.00	416.62
881.00	409.59
882.00	420.52
883.00	423.64
884.00	447.82
885.00	457.18
886.00	446.26
887.00	448.60
888.00	458.74
889.00	479.81
890.00	478.25
891.00	470.45
892.00	471.23
893.00	470.45
894.00	471.23
895.00	444.70
896.00	426.76
897.00	422.86
898.00	411.93
899.00	427.54
900.00	452.50
901.00	453.28
902.00	489.17
903.00	528.96
904.00	649.11
905.00	736.49
906.00	780.18
907.00	788.76
908.00	726.35
909.00	994.73
910.00	1017.35
911.00	1100.83
912.00	883.94
913.00	899.55
914.00	832.45
915.00	734.15
916.00	603.86
917.00	537.54
918.00	507.12
919.00	498.53
920.00	465.77
921.00	421.30
922.00	434.56
923.00	443.14
924.00	489.95
925.00	478.25
926.00	485.27
927.00	461.87
928.00	432.22
929.00	439.24
930.00	423.64
931.00	466.55
932.00	428.32
933.00	414.27
934.00	413.49
935.00	458.74
936.00	486.83
937.00	464.99
938.00	464.99
939.00	482.93
940.00	503.22
941.00	486.83
942.00	500.87
943.00	651.45
944.00	1109.41
945.00	1923.92
946.00	2912.41
947.00	3630.95
948.00	3685.56
949.00	3172.99
950.00	2360.04
951.00	1592.34
952.00	1032.96
953.00	706.84
954.00	596.84
955.00	528.18
956.00	503.22
957.00	477.47
958.00	472.79
959.00	469.67
960.00	475.13
961.00	472.79
962.00	452.50
963.00	445.48
964.00	424.42
965.00	437.68
966.00	449.38
967.00	467.33
968.00	453.28
969.00	439.24
970.00	428.32
971.00	429.10
972.00	428.32
973.00	437.68
974.00	451.72
975.00	468.89
976.00	464.99
977.00	471.23
978.00	471.23
979.00	475.91
980.00	440.80
981.00	397.11
982.00	397.89
983.00	401.01
984.00	431.44
985.00	422.08
986.00	433.00
987.00	433.78
988.00	422.08
989.00	444.70
990.00	432.22
991.00	455.62
992.00	456.40
993.00	454.84
994.00	451.72
995.00	418.18
996.00	404.13
997.00	393.99
998.00	419.74
999.00	447.82
1000.00	479.81
1001.00	461.09
1002.00	464.21
1003.00	458.74
1004.00	464.99
1005.00	470.45
1006.00	448.60
1007.00	459.53
1008.00	438.46
1009.00	460.31
1010.00	461.87
1011.00	467.33
1012.00	469.67
1013.00	442.36
1014.00	447.82
1015.00	422.08
1016.00	445.48
1017.00	450.16
1018.00	446.26
1019.00	426.76
1020.00	402.57
1021.00	401.01
1022.00	440.80
1023.00	443.14
1024.00	435.34
1025.00	411.15
1026.00	433.00
1027.00	445.48
1028.00	424.42
1029.00	418.96
1030.00	414.27
1031.00	442.36
1032.00	433.78
1033.00	436.12
1034.00	433.00
1035.00	431.44
1036.00	468.89
1037.00	487.61
1038.00	506.34
1039.00	507.90
1040.00	489.17
1041.00	477.47
1042.00	458.75
1043.00	506.34
1044.00	529.74
1045.00	585.91
1046.00	553.15
1047.00	528.18
1048.00	445.48
1049.00	441.58
1050.00	432.22
1051.00	445.48
1052.00	433.00
1053.00	454.84
1054.00	451.72
1055.00	446.26
1056.00	445.48
1057.00	443.92
1058.00	433.00
1059.00	404.91
1060.00	418.18
1061.00	463.43
1062.00	468.11
1063.00	459.53
1064.00	450.94
1065.00	469.67
1066.00	461.87
1067.00	443.92
1068.00	442.36
1069.00	445.48
1070.00	434.56
1071.00	448.60
1072.00	436.90
1073.00	440.02
1074.00	420.52
1075.00	433.00
1076.00	424.42
1077.00	405.69
1078.00	406.47
1079.00	433.78
1080.00	482.15
1081.00	476.69
1082.00	461.87
1083.00	436.90
1084.00	444.70
1085.00	457.18
1086.00	468.11
1087.00	460.31
1088.00	436.90
1089.00	440.80
1090.00	472.79
1091.00	472.01
1092.00	439.24
1093.00	391.65
1094.00	426.76
1095.00	477.47
1096.00	496.97
1097.00	475.13
1098.00	457.96
1099.00	519.60
1100.00	557.05
1101.00	600.74
1102.00	587.47
1103.00	583.57
1104.00	513.36
1105.00	474.35
1106.00	446.26
1107.00	452.50
1108.00	461.09
1109.00	472.79
1110.00	475.91
1111.00	457.18
1112.00	439.24
1113.00	454.06
1114.00	475.13
1115.00	482.93
1116.00	482.93
1117.00	499.31
1118.00	511.80
1119.00	526.62
1120.00	546.12
1121.00	563.29
1122.00	592.94
1123.00	535.98
1124.00	502.44
1125.00	451.72
1126.00	472.79
1127.00	457.96
1128.00	447.04
1129.00	418.18
1130.00	451.72
1131.00	479.81
1132.00	515.70
1133.00	491.51
1134.00	472.01
1135.00	451.72
1136.00	473.57
1137.00	511.80
1138.00	518.82
1139.00	539.10
1140.00	512.58
1141.00	519.60
1142.00	489.17
1143.00	495.41
1144.00	495.41
1145.00	485.27
1146.00	459.53
1147.00	449.38
1148.00	445.48
1149.00	459.53
1150.00	481.37
1151.00	502.44
1152.00	517.26
1153.00	516.48
1154.00	519.60
1155.00	570.31
1156.00	618.68
1157.00	705.28
1158.00	738.83
1159.00	750.53
1160.00	696.70
1161.00	637.41
1162.00	606.98
1163.00	658.47
1164.00	797.34
1165.00	1094.59
1166.00	1425.39
1167.00	1695.33
1168.00	1727.32
1169.00	1572.84
1170.00	1315.38
1171.00	1035.30
1172.00	838.69
1173.00	688.90
1174.00	640.53
1175.00	611.66
1176.00	621.80
1177.00	617.90
1178.00	612.44
1179.00	588.25
1180.00	601.52
1181.00	622.58
1182.00	659.25
1183.00	656.13
1184.00	642.09
1185.00	635.07
1186.00	624.14
1187.00	638.97
1188.00	646.77
1189.00	673.29
1190.00	702.16
1191.00	787.20
1192.00	881.60
1193.00	926.85
1194.00	920.61
1195.00	857.42
1196.00	834.01
1197.00	795.78
1198.00	859.76
1199.00	977.56
1200.00	1188.99
1201.00	1363.75
1202.00	1487.02
1203.00	1453.47
1204.00	1386.38
1205.00	1235.02
1206.00	1130.48
1207.00	1067.28
1208.00	1060.26
1209.00	1145.30
1210.00	1178.07
1211.00	1240.48
1212.00	1288.86
1213.00	1452.69
1214.00	1688.31
1215.00	2006.62
1216.00	2530.12
1217.00	5723.39
1218.00	21171.71
1219.00	41928.36
1220.00	59928.64
1221.00	65535.00
1222.00	65535.00
1223.00	65535.00
1224.00	65535.00
1225.00	65345.42
1226.00	56232.15
1227.00	40545.88
1228.00	21845.78
1229.00	10619.01
1230.00	5376.99
1231.00	3124.62
1232.00	2242.23
1233.00	1874.77
1234.00	1703.13
1235.00	1631.35
1236.00	2101.02
1237.00	3755.78
1238.00	7093.38
1239.00	11591.11
1240.00	15254.05
1241.00	16398.57
1242.00	14693.88
1243.00	11374.22
1244.00	7786.18
1245.00	4835.55
1246.00	2831.27
1247.00	1734.34
1248.00	1183.53
1249.00	929.19
1250.00	906.57
1251.00	976.78
1252.00	1114.88
1253.00	1225.66
1254.00	1298.22
1255.00	1292.76
1256.00	1252.97
1257.00	1137.50
1258.00	1070.40
1259.00	964.30
1260.00	912.81
1261.00	848.83
1262.00	853.52
1263.00	837.91
1264.00	839.47
1265.00	812.17
1266.00	805.14
1267.00	782.52
1268.00	765.36
1269.00	774.72
1270.00	782.52
1271.00	802.80
1272.00	798.90
1273.00	821.53
1274.00	868.34
1275.00	1259.99
1276.00	3015.39
1277.00	7238.50
1278.00	14568.27
1279.00	22775.75
1280.00	28410.20
1281.00	28723.05
1282.00	24513.21
1283.00	17945.67
1284.00	11601.26
1285.00	6665.07
1286.00	3680.10
1287.00	2101.02
1288.00	1302.12
1289.00	987.71
1290.00	883.94
1291.00	893.30
1292.00	898.77
1293.00	944.02
1294.00	953.38
1295.00	1137.50
1296.00	1753.84
1297.00	2974.82
1298.00	4689.65
1299.00	6193.84
1300.00	6808.62
1301.00	6353.77
1302.00	5148.40
1303.00	3751.88
1304.00	2456.78
1305.00	1583.76
1306.00	1166.37
1307.00	983.02
1308.00	919.05
1309.00	799.68
1310.00	758.33
1311.00	680.32
1312.00	659.25
1313.00	629.60
1314.00	604.64
1315.00	610.10
1316.00	597.62
1317.00	590.60
1318.00	577.33
1319.00	582.01
1320.00	590.60
1321.00	559.39
1322.00	560.95
1323.00	554.71
1324.00	571.87
1325.00	576.55
1326.00	586.69
1327.00	589.82
1328.00	583.57
1329.00	634.29
1330.00	980.68
1331.00	1921.58
1332.00	3567.76
1333.00	5547.07
1334.00	7066.08
1335.00	7432.76
1336.00	6700.95
1337.00	5245.14
1338.00	3706.63
1339.00	2392.81
1340.00	1493.26
1341.00	1015.01
1342.00	754.43
1343.00	663.15
1344.00	635.07
1345.00	653.01
1346.00	649.11
1347.00	631.16
1348.00	604.64
1349.00	611.66
1350.00	622.58
1351.00	640.53
1352.00	645.99
1353.00	666.27
1354.00	681.10
1355.00	709.18
1356.00	762.23
1357.00	893.30
1358.00	1488.58
1359.00	3559.95
1360.00	7765.12
1361.00	14217.97
1362.00	20370.46
1363.00	23875.02
1364.00	22835.83
1365.00	18940.40
1366.00	13530.64
1367.00	8774.67
1368.00	5039.95
1369.00	2959.22
1370.00	1874.77
1371.00	1464.40
1372.00	2131.45
1373.00	5450.33
1374.00	12801.17
1375.00	24247.95
1376.00	35535.57
1377.00	41950.20
1378.00	40662.13
1379.00	34075.86
1380.00	24775.35
1381.00	15991.32
1382.00	8942.41
1383.00	4775.47
1384.00	2686.94
1385.00	1646.18
1386.00	1194.45
1387.00	961.96
1388.00	880.04
1389.00	848.05
1390.00	822.31
1391.00	840.25
1392.00	795.00
1393.00	807.48
1394.00	902.67
1395.00	1107.85
1396.00	1401.98
1397.00	1667.24
1398.00	1856.82
1399.00	1863.85
1400.00	1780.37
1401.00	1700.79
1402.00	2198.54
1403.00	5646.15
1404.00	14780.48
1405.00	30579.88
1406.00	46462.75
1407.00	57056.02
1408.00	58886.32
1409.00	54486.89
1410.00	44715.15
1411.00	31572.27
1412.00	19012.17
1413.00	10017.49
1414.00	5327.84
1415.00	3016.95
1416.00	2475.51
1417.00	3566.98
1418.00	6565.98
1419.00	11112.08
1420.00	15337.53
1421.00	17391.74
1422.00	16319.78
1423.00	13396.45
1424.00	9689.82
1425.00	6374.84
1426.00	3768.26
1427.00	2227.41
1428.00	1402.76
1429.00	1028.28
1430.00	888.62
1431.00	833.23
1432.00	801.24
1433.00	783.30
1434.00	795.00
1435.00	777.84
1436.00	724.79
1437.00	692.02
1438.00	654.57
1439.00	627.26
1440.00	591.38
1441.00	583.57
1442.00	600.74
1443.00	618.68
1444.00	634.29
1445.00	634.29
1446.00	634.29
1447.00	649.11
1448.00	646.77
1449.00	663.15
1450.00	691.24
1451.00	998.63
1452.00	1854.48
1453.00	3593.50
1454.00	6154.05
1455.00	8755.16
1456.00	10204.74
1457.00	9918.41
1458.00	8471.18
1459.00	6415.41
1460.00	4427.51
1461.00	2668.21
1462.00	1622.77
1463.00	1118.00
1464.00	844.93
1465.00	713.86
1466.00	632.72
1467.00	631.94
1468.00	617.12
1469.00	605.42
1470.00	606.20
1471.00	616.34
1472.00	626.48
1473.00	634.29
1474.00	651.45
1475.00	639.75
1476.00	628.82
1477.00	633.50
1478.00	666.27
1479.00	695.14
1480.00	699.04
1481.00	737.27
1482.00	805.92
1483.00	1205.38
1484.00	3070.78
1485.00	7627.03
1486.00	15735.42
1487.00	25623.40
1488.00	33271.50
1489.00	35361.59
1490.00	31733.76
1491.00	25017.99
1492.00	17376.92
1493.00	10719.65
1494.00	5849.78
1495.00	3222.14
1496.00	1854.48
1497.00	1224.88
1498.00	929.19
1499.00	782.52
1500.00	695.14
1501.00	627.26
1502.00	611.66
1503.00	625.70
1504.00	623.36
1505.00	639.75
1506.00	634.29
1507.00	638.97
1508.00	670.17
1509.00	926.07
1510.00	1753.06
1511.00	3247.10
1512.00	5448.77
1513.00	7561.49
1514.00	8769.99
1515.00	8497.70
1516.00	7209.63
1517.00	5465.93
1518.00	3802.59
1519.00	2454.44
1520.00	1582.20
1521.00	1131.26
1522.00	834.01
1523.00	710.74
1524.00	657.69
1525.00	679.54
1526.00	748.97
1527.00	837.91
1528.00	1072.75
1529.00	2041.73
1530.00	4572.63
1531.00	9199.87
1532.00	15541.16
1533.00	21059.36
1534.00	23466.21
1535.00	21895.71
1536.00	18008.08
1537.00	13191.26
1538.00	8653.74
1539.00	4979.10
1540.00	2797.72
1541.00	1665.68
1542.00	1173.39
1543.00	935.43
1544.00	829.33
1545.00	745.85
1546.00	701.38
1547.00	687.34
1548.00	675.63
1549.00	676.41
1550.00	673.29
1551.00	695.92
1552.00	710.74
1553.00	690.46
1554.00	705.28
1555.00	713.08
1556.00	783.30
1557.00	794.22
1558.00	847.27
1559.00	858.98
1560.00	986.15
1561.00	1723.41
1562.00	4660.01
1563.00	11162.80
1564.00	21774.00
1565.00	33585.91
1566.00	42074.25
1567.00	43757.88
1568.00	39120.49
1569.00	30838.90
1570.00	21574.28
1571.00	13430.77
1572.00	7624.69
1573.00	4447.80
1574.00	3854.08
1575.00	7648.87
1576.00	17248.97
1577.00	32758.92
1578.00	47495.71
1579.00	56933.53
1580.00	58244.23
1581.00	54181.84
1582.00	45106.02
1583.00	32736.29
1584.00	20265.14
1585.00	11112.86
1586.00	5916.09
1587.00	3206.53
1588.00	1912.22
1589.00	1324.74
1590.00	1035.30
1591.00	896.43
1592.00	811.39
1593.00	748.19
1594.00	721.67
1595.00	703.72
1596.00	689.68
1597.00	683.44
1598.00	653.79
1599.00	620.24
1600.00	606.20
1601.00	592.16
1602.00	593.72
1603.00	585.91
1604.00	594.50
1605.00	597.62
1606.00	599.96
1607.00	614.78
1608.00	639.75
1609.00	620.24
1610.00	603.86
1611.00	591.38
1612.00	603.08
1613.00	622.58
1614.00	610.88
1615.00	586.69
1616.00	543.78
1617.00	553.93
1618.00	560.17
1619.00	553.15
1620.00	532.08
1621.00	556.27
1622.00	601.52
1623.00	642.09
1624.00	645.21
1625.00	614.78
1626.00	588.25
1627.00	560.95
1628.00	575.77
1629.00	590.60
1630.00	591.38
1631.00	600.74
1632.00	587.47
1633.00	582.79
1634.00	579.67
1635.00	603.08
1636.00	624.92
1637.00	642.09
1638.00	635.07
1639.00	656.13
1640.00	675.63
1641.00	684.22
1642.00	688.90
1643.00	682.66
1644.00	776.28
1645.00	1302.90
1646.00	3486.62
1647.00	8146.62
1648.00	15999.90
1649.00	25264.52
1650.00	32483.52
1651.00	34653.97
1652.00	31741.57
1653.00	25787.24
1654.00	18807.76
1655.00	12115.39
1656.00	7057.50
1657.00	3942.24
1658.00	2271.10
1659.00	1424.61
1660.00	1015.01
1661.00	870.68
1662.00	806.70
1663.00	897.99
1664.00	1466.74
1665.00	2864.04
1666.00	5318.48
1667.00	8460.26
1668.00	11082.44
1669.00	12199.65
1670.00	11481.11
1671.00	9653.93
1672.00	7310.27
1673.00	5030.59
1674.00	3137.10
1675.00	1937.18
1676.00	1242.04
1677.00	894.86
1678.00	698.26
1679.00	613.22
1680.00	597.62
1681.00	582.79
1682.00	571.09
1683.00	523.50
1684.00	511.02
1685.00	522.72
1686.00	522.72
1687.00	503.22
1688.00	496.97
1689.00	511.80
1690.00	546.91
1691.00	537.54
1692.00	520.38
1693.00	493.07
1694.00	493.85
1695.00	507.90
1696.00	526.62
1697.00	536.76
1698.00	543.00
1699.00	557.83
1700.00	568.75
1701.00	561.73
1702.00	559.39
1703.00	532.86
1704.00	529.74
1705.00	518.82
1706.00	540.66
1707.00	586.69
1708.00	630.38
1709.00	879.26
1710.00	1884.13
1711.00	4128.70
1712.00	7789.30
1713.00	12180.15
1714.00	15744.00
1715.00	17118.68
1716.00	15958.55
1717.00	13351.98
1718.00	10107.21
1719.00	6937.35
1720.00	4258.99
1721.00	2485.65
1722.00	1497.94
1723.00	983.02
1724.00	727.13
1725.00	645.99
1726.00	576.55
1727.00	542.22
1728.00	508.68
1729.00	514.14
1730.00	493.85
1731.00	471.23
1732.00	463.43
1733.00	486.05
1734.00	514.14
1735.00	525.84
1736.00	502.43
1737.00	494.63
1738.00	503.22
1739.00	541.44
1740.00	535.20
1741.00	514.92
1742.00	497.75
1743.00	500.87
1744.00	512.58
1745.00	521.16
1746.00	514.92
1747.00	504.00
1748.00	507.90
1749.00	521.94
1750.00	556.27
1751.00	574.21
1752.00	606.20
1753.00	605.42
1754.00	624.14
1755.00	628.04
1756.00	631.16
1757.00	584.35
1758.00	557.05
1759.00	551.59
1760.00	577.33
1761.00	603.86
1762.00	621.02
1763.00	649.11
1764.00	745.85
1765.00	1459.71
1766.00	3696.49
1767.00	8161.45
1768.00	15068.37
1769.00	22768.73
1770.00	28801.85
1771.00	30420.72
1772.00	27975.64
1773.00	22636.88
1774.00	16580.36
1775.00	10835.90
1776.00	6512.93
1777.00	3786.21
1778.00	2270.32
1779.00	1443.33
1780.00	1075.09
1781.00	837.13
1782.00	739.61
1783.00	673.29
1784.00	692.80
1785.00	667.83
1786.00	631.16
1787.00	604.64
1788.00	634.29
1789.00	658.47
1790.00	647.55
1791.00	653.01
1792.00	820.75
1793.00	1631.35
1794.00	3570.88
1795.00	6850.75
1796.00	11457.70
1797.00	15925.00
1798.00	18637.69
1799.00	18422.36
1800.00	16031.11
1801.00	12514.84
1802.00	8911.98
1803.00	5696.86
1804.00	3435.13
1805.00	1997.26
1806.00	1250.63
1807.00	887.06
1808.00	734.93
1809.00	635.07
1810.00	593.72
1811.00	556.27
1812.00	546.91
1813.00	517.26
1814.00	505.56
1815.00	502.44
1816.00	513.36
1817.00	527.40
1818.00	524.28
1819.00	518.82
1820.00	521.16
1821.00	553.93
1822.00	618.68
1823.00	670.95
1824.00	689.68
1825.00	658.47
1826.00	623.36
1827.00	574.99
1828.00	569.53
1829.00	539.88
1830.00	530.52
1831.00	476.69
1832.00	445.48
1833.00	436.12
1834.00	455.62
1835.00	479.03
1836.00	498.53
1837.00	496.19
1838.00	510.24
1839.00	496.97
1840.00	496.19
1841.00	472.01
1842.00	464.99
1843.00	433.00
1844.00	417.40
1845.00	416.62
1846.00	439.24
1847.00	460.31
1848.00	477.47
1849.00	482.93
1850.00	457.96
1851.00	415.84
1852.00	397.11
1853.00	401.79
1854.00	422.86
1855.00	431.44
1856.00	436.90
1857.00	425.20
1858.00	431.44
1859.00	447.82
1860.00	460.31
1861.00	440.02
1862.00	441.58
1863.00	449.38
1864.00	454.84
1865.00	460.31
1866.00	456.40
1867.00	458.75
1868.00	421.30
1869.00	429.88
1870.00	432.22
1871.00	457.18
1872.00	441.58
1873.00	433.00
1874.00	418.96
1875.00	433.78
1876.00	445.48
1877.00	443.92
1878.00	456.40
1879.00	445.48
1880.00	450.94
1881.00	436.90
1882.00	469.67
1883.00	482.93
1884.00	458.75
1885.00	458.75
1886.00	468.11
1887.00	458.75
1888.00	423.64
1889.00	415.84
1890.00	447.82
1891.00	470.45
1892.00	475.91
1893.00	443.92
1894.00	415.84
1895.00	403.35
1896.00	451.72
1897.00	450.16
1898.00	452.50
1899.00	406.47
1900.00	410.37
1901.00	411.15
1902.00	426.76
1903.00	458.75
1904.00	439.24
1905.00	449.38
1906.00	445.48
1907.00	518.04
1908.00	578.11
1909.00	641.31
1910.00	642.87
1911.00	628.82
1912.00	603.86
1913.00	573.43
1914.00	537.54
1915.00	524.28
1916.00	499.31
1917.00	486.05
1918.00	452.50
1919.00	454.84
1920.00	479.03
1921.00	506.34
1922.00	504.78
1923.00	500.09
1924.00	486.83
1925.00	485.27
1926.00	465.77
1927.00	452.50
1928.00	468.11
1929.00	487.61
1930.00	496.97
1931.00	473.57
1932.00	469.67
1933.00	456.40
1934.00	447.82
1935.00	457.96
1936.00	506.34
1937.00	541.44
1938.00	530.52
1939.00	523.50
1940.00	518.04
1941.00	486.83
1942.00	467.33
1943.00	469.67
1944.00	519.60
1945.00	538.32
1946.00	631.16
1947.00	951.04
1948.00	1990.24
1949.00	3937.56
1950.00	7023.95
1951.00	10562.84
1952.00	13447.16
1953.00	14529.27
1954.00	13724.12
1955.00	11748.71
1956.00	9277.88
1957.00	6796.92
1958.00	4627.24
1959.00	3067.66
1960.00	1995.70
1961.00	1369.21
1962.00	961.96
1963.00	773.16
1964.00	643.65
1965.00	593.72
1966.00	547.69
1967.00	530.52
1968.00	509.46
1969.00	514.92
1970.00	491.51
1971.00	486.83
1972.00	470.45
1973.00	496.19
1974.00	542.22
1975.00	610.10
1976.00	717.76
1977.00	873.80
1978.00	1069.62
1979.00	1245.95
1980.00	1309.14
1981.00	1259.21
1982.00	1159.35
1983.00	1025.93
1984.00	879.26
1985.00	728.69
1986.00	629.60
1987.00	597.62
1988.00	532.86
1989.00	514.92
1990.00	503.22
1991.00	530.52
1992.00	516.48
1993.00	478.25
1994.00	448.60
1995.00	446.26
1996.00	441.58
1997.00	446.26
1998.00	475.13
1999.00	493.85
2000.00	525.84
2001.00	511.02
2002.00	553.93
2003.00	512.58
2004.00	487.61
2005.00	441.58
2006.00	468.11
2007.00	486.05
2008.00	494.63
2009.00	514.14
2010.00	502.43
2011.00	475.13
2012.00	472.79
2013.00	485.27
2014.00	502.44
2015.00	510.24
2016.00	519.60
2017.00	551.59
2018.00	557.83
2019.00	646.77
2020.00	764.57
2021.00	940.12
2022.00	1135.16
2023.00	1354.39
2024.00	1905.20
2025.00	3456.19
2026.00	6622.94
2027.00	11746.37
2028.00	18487.11
2029.00	25053.09
2030.00	29393.23
2031.00	29942.47
2032.00	27757.97
2033.00	23742.39
2034.00	18915.43
2035.00	13948.03
2036.00	9596.98
2037.00	6374.84
2038.00	4056.15
2039.00	2532.46
2040.00	1650.86
2041.00	1150.76
2042.00	901.11
2043.00	764.58
2044.00	725.57
2045.00	679.54
2046.00	659.25
2047.00	643.65
>>>>>End Processed Spectral Data<<<<<
