SpectraSuite Data File
++++++++++++++++++++++++++++++++++++
Date: Thu Nov 16 13:55:20 EST 2017
User: cheriyan
Dark Spectrum Present: No
Reference Spectrum Present: No
Number of Sampled Component Spectra: 1
Spectrometers: USB2+H05261
Integration Time (usec): 100000 (USB2+H05261)
Spectra Averaged: 1 (USB2+H05261)
Boxcar Smoothing: 1 (USB2+H05261)
Correct for Electrical Dark: No (USB2+H05261)
Strobe/Lamp Enabled: No (USB2+H05261)
Correct for Detector Non-linearity: No (USB2+H05261)
Correct for Stray Light: No (USB2+H05261)
Number of Pixels in Processed Spectrum: 2048
>>>>>Begin Processed Spectral Data<<<<<
0.00	290.23
1.00	290.23
2.00	298.03
3.00	294.13
4.00	277.74
5.00	266.82
6.00	237.95
7.00	205.97
8.00	168.52
9.00	184.90
10.00	219.23
11.00	227.81
12.00	239.51
13.00	234.83
14.00	250.44
15.00	252.00
16.00	253.56
17.00	269.94
18.00	259.02
19.00	283.99
20.00	287.11
21.00	320.65
22.00	315.19
23.00	326.11
24.00	318.31
25.00	326.11
26.00	351.08
27.00	360.44
28.00	355.76
29.00	344.06
30.00	338.60
31.00	358.10
32.00	363.56
33.00	383.07
34.00	400.23
35.00	407.25
36.00	411.15
37.00	419.74
38.00	430.66
39.00	451.72
40.00	450.94
41.00	429.88
42.00	401.79
43.00	396.33
44.00	424.42
45.00	454.84
46.00	450.94
47.00	447.82
48.00	441.58
49.00	433.78
50.00	434.56
51.00	403.35
52.00	416.62
53.00	413.49
54.00	434.56
55.00	443.14
56.00	413.49
57.00	422.08
58.00	401.01
59.00	402.57
60.00	376.05
61.00	380.73
62.00	397.11
63.00	411.15
64.00	425.20
65.00	403.35
66.00	394.77
67.00	379.95
68.00	388.53
69.00	370.58
70.00	389.31
71.00	400.23
72.00	411.15
73.00	377.61
74.00	400.23
75.00	402.57
76.00	417.40
77.00	404.13
78.00	419.74
79.00	421.30
80.00	415.06
81.00	393.99
82.00	379.17
83.00	377.61
84.00	404.13
85.00	422.08
86.00	397.89
87.00	387.75
88.00	404.13
89.00	427.54
90.00	408.03
91.00	364.34
92.00	373.71
93.00	386.19
94.00	443.14
95.00	439.24
96.00	455.62
97.00	416.62
98.00	401.01
99.00	393.21
100.00	390.09
101.00	380.73
102.00	371.36
103.00	379.17
104.00	404.13
105.00	422.86
106.00	430.66
107.00	408.03
108.00	390.87
109.00	357.32
110.00	370.58
111.00	386.97
112.00	428.32
113.00	411.93
114.00	397.89
115.00	369.80
116.00	393.99
117.00	399.45
118.00	404.91
119.00	398.67
120.00	419.74
121.00	402.57
122.00	390.87
123.00	376.83
124.00	406.47
125.00	416.62
126.00	385.41
127.00	397.89
128.00	402.57
129.00	439.24
130.00	422.08
131.00	425.98
132.00	431.44
133.00	435.34
134.00	440.02
135.00	416.62
136.00	421.30
137.00	433.00
138.00	428.32
139.00	414.27
140.00	386.97
141.00	408.81
142.00	418.18
143.00	415.84
144.00	432.22
145.00	456.40
146.00	486.05
147.00	485.27
148.00	472.79
149.00	479.03
150.00	461.87
151.00	434.56
152.00	427.54
153.00	404.91
154.00	416.62
155.00	421.30
156.00	440.80
157.00	465.77
158.00	459.53
159.00	436.90
160.00	415.84
161.00	393.99
162.00	414.27
163.00	416.62
164.00	410.37
165.00	395.55
166.00	386.19
167.00	376.83
168.00	386.19
169.00	408.03
170.00	415.84
171.00	436.12
172.00	397.11
173.00	430.66
174.00	425.98
175.00	465.77
176.00	433.78
177.00	423.64
178.00	433.00
179.00	439.24
180.00	438.46
181.00	435.34
182.00	420.52
183.00	417.40
184.00	386.19
185.00	414.27
186.00	443.14
187.00	451.72
188.00	422.86
189.00	383.07
190.00	386.97
191.00	428.32
192.00	442.36
193.00	436.12
194.00	442.36
195.00	467.33
196.00	535.20
197.00	511.02
198.00	471.23
199.00	391.65
200.00	397.89
201.00	428.32
202.00	470.45
203.00	474.35
204.00	458.74
205.00	426.76
206.00	379.95
207.00	373.71
208.00	394.77
209.00	439.24
210.00	426.76
211.00	421.30
212.00	407.25
213.00	422.08
214.00	404.13
215.00	411.15
216.00	416.62
217.00	415.84
218.00	418.96
219.00	405.69
220.00	404.91
221.00	390.87
222.00	415.84
223.00	459.53
224.00	467.33
225.00	465.77
226.00	437.68
227.00	408.03
228.00	392.43
229.00	371.36
230.00	415.84
231.00	421.30
232.00	420.52
233.00	424.42
234.00	427.54
235.00	435.34
236.00	397.11
237.00	374.49
238.00	365.12
239.00	349.52
240.00	360.44
241.00	379.95
242.00	397.89
243.00	406.47
244.00	408.81
245.00	418.18
246.00	423.64
247.00	421.30
248.00	425.20
249.00	412.71
250.00	419.74
251.00	434.56
252.00	447.82
253.00	451.72
254.00	467.33
255.00	457.18
256.00	443.14
257.00	415.06
258.00	443.92
259.00	443.92
260.00	448.60
261.00	425.20
262.00	439.24
263.00	446.26
264.00	454.06
265.00	461.09
266.00	460.31
267.00	499.31
268.00	507.90
269.00	543.78
270.00	550.03
271.00	571.09
272.00	599.96
273.00	599.18
274.00	592.16
275.00	560.95
276.00	567.19
277.00	563.29
278.00	560.17
279.00	547.69
280.00	525.06
281.00	488.39
282.00	448.60
283.00	408.03
284.00	422.86
285.00	419.74
286.00	460.31
287.00	454.06
288.00	463.43
289.00	450.16
290.00	432.22
291.00	408.03
292.00	394.77
293.00	413.49
294.00	417.40
295.00	436.90
296.00	401.01
297.00	422.08
298.00	414.27
299.00	453.28
300.00	426.76
301.00	408.81
302.00	428.32
303.00	430.66
304.00	430.66
305.00	403.35
306.00	450.94
307.00	551.59
308.00	648.33
309.00	699.82
310.00	692.80
311.00	631.94
312.00	553.93
313.00	483.71
314.00	444.70
315.00	439.24
316.00	461.09
317.00	443.92
318.00	422.08
319.00	389.31
320.00	390.09
321.00	382.29
322.00	383.85
323.00	406.47
324.00	415.84
325.00	426.76
326.00	425.20
327.00	437.68
328.00	445.48
329.00	436.90
330.00	429.10
331.00	403.35
332.00	397.89
333.00	407.25
334.00	384.63
335.00	384.63
336.00	372.15
337.00	403.35
338.00	399.45
339.00	412.71
340.00	429.88
341.00	463.43
342.00	435.34
343.00	401.01
344.00	400.23
345.00	437.68
346.00	527.40
347.00	589.81
348.00	695.14
349.00	728.69
350.00	724.79
351.00	650.67
352.00	592.94
353.00	542.22
354.00	539.10
355.00	517.26
356.00	512.58
357.00	479.03
358.00	443.14
359.00	424.42
360.00	414.27
361.00	431.44
362.00	429.10
363.00	436.12
364.00	436.12
365.00	436.12
366.00	422.86
367.00	411.93
368.00	429.10
369.00	431.44
370.00	464.21
371.00	441.58
372.00	447.04
373.00	430.66
374.00	429.10
375.00	441.58
376.00	425.98
377.00	443.14
378.00	422.86
379.00	429.88
380.00	416.62
381.00	444.70
382.00	447.82
383.00	435.34
384.00	410.37
385.00	399.45
386.00	420.52
387.00	419.74
388.00	414.27
389.00	405.69
390.00	392.43
391.00	411.15
392.00	406.47
393.00	417.40
394.00	404.13
395.00	411.93
396.00	434.56
397.00	459.53
398.00	475.13
399.00	461.87
400.00	444.70
401.00	412.71
402.00	396.33
403.00	406.47
404.00	425.98
405.00	422.08
406.00	404.91
407.00	393.21
408.00	398.67
409.00	402.57
410.00	395.55
411.00	396.33
412.00	394.77
413.00	390.87
414.00	414.27
415.00	429.88
416.00	430.66
417.00	413.49
418.00	417.40
419.00	428.32
420.00	443.14
421.00	408.03
422.00	401.01
423.00	404.13
424.00	431.44
425.00	445.48
426.00	422.08
427.00	425.98
428.00	423.64
429.00	443.92
430.00	438.46
431.00	438.46
432.00	415.06
433.00	377.61
434.00	379.17
435.00	390.09
436.00	443.14
437.00	418.18
438.00	414.27
439.00	389.31
440.00	410.37
441.00	440.02
442.00	485.27
443.00	500.87
444.00	497.75
445.00	426.76
446.00	400.23
447.00	349.52
448.00	369.80
449.00	403.35
450.00	461.87
451.00	514.92
452.00	496.97
453.00	475.13
454.00	435.34
455.00	447.04
456.00	459.53
457.00	450.94
458.00	452.50
459.00	442.36
460.00	433.00
461.00	419.74
462.00	415.84
463.00	435.34
464.00	421.30
465.00	412.71
466.00	406.47
467.00	420.52
468.00	419.74
469.00	429.88
470.00	440.80
471.00	453.28
472.00	434.56
473.00	418.96
474.00	383.85
475.00	397.89
476.00	396.33
477.00	431.44
478.00	443.92
479.00	460.31
480.00	454.84
481.00	448.60
482.00	449.38
483.00	429.10
484.00	410.37
485.00	398.67
486.00	418.18
487.00	409.59
488.00	417.40
489.00	405.69
490.00	402.57
491.00	393.21
492.00	402.57
493.00	428.32
494.00	436.90
495.00	436.12
496.00	430.66
497.00	435.34
498.00	440.80
499.00	430.66
500.00	430.66
501.00	440.02
502.00	444.70
503.00	431.44
504.00	411.93
505.00	414.27
506.00	423.64
507.00	438.46
508.00	455.62
509.00	438.46
510.00	436.90
511.00	413.49
512.00	442.36
513.00	423.64
514.00	411.15
515.00	382.29
516.00	386.19
517.00	394.77
518.00	392.43
519.00	424.42
520.00	436.12
521.00	447.04
522.00	436.90
523.00	436.90
524.00	457.96
525.00	464.21
526.00	476.69
527.00	454.06
528.00	443.92
529.00	420.52
530.00	427.54
531.00	432.22
532.00	452.50
533.00	453.28
534.00	452.50
535.00	439.24
536.00	429.88
537.00	439.24
538.00	439.24
539.00	455.62
540.00	454.84
541.00	457.96
542.00	467.33
543.00	450.94
544.00	440.02
545.00	396.33
546.00	374.49
547.00	404.91
548.00	413.49
549.00	443.92
550.00	440.02
551.00	456.40
552.00	476.69
553.00	464.21
554.00	465.77
555.00	448.60
556.00	463.43
557.00	487.61
558.00	500.09
559.00	489.95
560.00	436.12
561.00	390.09
562.00	374.49
563.00	425.98
564.00	479.81
565.00	489.95
566.00	479.81
567.00	470.45
568.00	486.05
569.00	470.45
570.00	461.87
571.00	463.43
572.00	465.77
573.00	464.99
574.00	459.53
575.00	459.53
576.00	427.54
577.00	418.18
578.00	401.79
579.00	414.27
580.00	411.15
581.00	414.27
582.00	415.06
583.00	405.69
584.00	411.15
585.00	412.71
586.00	420.52
587.00	436.12
588.00	438.46
589.00	451.72
590.00	435.34
591.00	445.48
592.00	419.74
593.00	424.42
594.00	419.74
595.00	439.24
596.00	436.90
597.00	433.78
598.00	428.32
599.00	427.54
600.00	413.49
601.00	404.91
602.00	390.09
603.00	391.65
604.00	406.47
605.00	410.37
606.00	438.46
607.00	450.94
608.00	484.49
609.00	441.58
610.00	400.23
611.00	381.51
612.00	386.19
613.00	374.49
614.00	369.80
615.00	375.27
616.00	422.08
617.00	418.18
618.00	427.54
619.00	429.88
620.00	441.58
621.00	444.70
622.00	422.08
623.00	410.37
624.00	401.79
625.00	411.93
626.00	432.22
627.00	444.70
628.00	465.77
629.00	447.04
630.00	418.18
631.00	390.87
632.00	391.65
633.00	404.91
634.00	425.20
635.00	418.18
636.00	417.40
637.00	393.99
638.00	399.45
639.00	435.34
640.00	443.14
641.00	445.48
642.00	440.80
643.00	415.06
644.00	425.98
645.00	404.13
646.00	452.50
647.00	450.94
648.00	452.50
649.00	450.94
650.00	451.72
651.00	445.48
652.00	433.00
653.00	422.08
654.00	487.61
655.00	489.95
656.00	490.73
657.00	424.42
658.00	397.11
659.00	422.08
660.00	414.27
661.00	433.78
662.00	429.88
663.00	442.36
664.00	427.54
665.00	391.65
666.00	369.02
667.00	362.00
668.00	398.67
669.00	411.15
670.00	415.06
671.00	395.55
672.00	431.44
673.00	428.32
674.00	418.18
675.00	400.23
676.00	412.71
677.00	408.03
678.00	411.15
679.00	428.32
680.00	467.33
681.00	460.31
682.00	433.78
683.00	426.76
684.00	443.92
685.00	460.31
686.00	440.80
687.00	399.45
688.00	377.61
689.00	377.61
690.00	429.10
691.00	443.92
692.00	448.60
693.00	412.71
694.00	435.34
695.00	437.68
696.00	452.50
697.00	443.92
698.00	457.18
699.00	452.50
700.00	448.60
701.00	436.12
702.00	436.90
703.00	436.12
704.00	431.44
705.00	439.24
706.00	431.44
707.00	448.60
708.00	451.72
709.00	440.80
710.00	412.71
711.00	404.13
712.00	404.13
713.00	421.30
714.00	391.65
715.00	400.23
716.00	411.93
717.00	444.70
718.00	512.58
719.00	503.22
720.00	483.71
721.00	418.18
722.00	425.98
723.00	441.58
724.00	446.26
725.00	432.22
726.00	434.56
727.00	415.06
728.00	411.15
729.00	419.74
730.00	445.48
731.00	447.82
732.00	422.86
733.00	440.02
734.00	472.01
735.00	505.56
736.00	483.71
737.00	490.73
738.00	473.57
739.00	452.50
740.00	436.12
741.00	437.68
742.00	472.01
743.00	469.67
744.00	473.57
745.00	461.09
746.00	448.60
747.00	431.44
748.00	409.59
749.00	390.87
750.00	423.64
751.00	433.78
752.00	445.48
753.00	430.66
754.00	447.04
755.00	463.43
756.00	447.04
757.00	445.48
758.00	443.14
759.00	457.96
760.00	469.67
761.00	465.77
762.00	469.67
763.00	440.80
764.00	451.72
765.00	446.26
766.00	455.62
767.00	433.00
768.00	442.36
769.00	450.16
770.00	450.94
771.00	433.78
772.00	436.90
773.00	453.28
774.00	461.09
775.00	467.33
776.00	452.50
777.00	461.87
778.00	494.63
779.00	536.76
780.00	546.12
781.00	541.44
782.00	561.73
783.00	624.92
784.00	609.32
785.00	535.98
786.00	452.50
787.00	455.62
788.00	469.67
789.00	468.89
790.00	436.12
791.00	432.22
792.00	429.10
793.00	418.18
794.00	408.81
795.00	419.74
796.00	422.08
797.00	460.31
798.00	450.94
799.00	479.03
800.00	455.62
801.00	464.99
802.00	466.55
803.00	493.85
804.00	500.09
805.00	472.01
806.00	428.32
807.00	405.69
808.00	411.15
809.00	436.90
810.00	449.38
811.00	463.43
812.00	460.31
813.00	453.28
814.00	454.06
815.00	451.72
816.00	452.50
817.00	443.92
818.00	426.76
819.00	436.90
820.00	430.66
821.00	454.06
822.00	453.28
823.00	498.53
824.00	487.61
825.00	486.05
826.00	458.74
827.00	425.98
828.00	428.32
829.00	411.93
830.00	463.43
831.00	435.34
832.00	454.06
833.00	451.72
834.00	479.81
835.00	478.25
836.00	467.33
837.00	471.23
838.00	466.55
839.00	454.84
840.00	444.70
841.00	436.12
842.00	451.72
843.00	455.62
844.00	500.09
845.00	505.56
846.00	515.70
847.00	467.33
848.00	466.55
849.00	433.78
850.00	440.80
851.00	440.02
852.00	464.21
853.00	464.21
854.00	459.53
855.00	435.34
856.00	433.00
857.00	416.62
858.00	425.20
859.00	439.24
860.00	456.40
861.00	468.89
862.00	449.38
863.00	451.72
864.00	453.28
865.00	440.02
866.00	425.20
867.00	429.88
868.00	432.22
869.00	439.24
870.00	425.98
871.00	450.94
872.00	433.78
873.00	443.92
874.00	422.86
875.00	438.46
876.00	444.70
877.00	464.21
878.00	468.89
879.00	454.84
880.00	453.28
881.00	456.40
882.00	461.09
883.00	457.18
884.00	452.50
885.00	456.40
886.00	462.65
887.00	471.23
888.00	462.65
889.00	464.99
890.00	436.12
891.00	443.14
892.00	438.46
893.00	443.92
894.00	411.15
895.00	399.45
896.00	420.52
897.00	441.58
898.00	461.09
899.00	451.72
900.00	461.87
901.00	460.31
902.00	498.53
903.00	560.95
904.00	640.53
905.00	735.71
906.00	787.20
907.00	812.95
908.00	774.72
909.00	1027.50
910.00	1031.40
911.00	1100.05
912.00	925.29
913.00	964.30
914.00	885.50
915.00	748.19
916.00	606.98
917.00	543.78
918.00	500.87
919.00	488.39
920.00	486.05
921.00	487.61
922.00	488.39
923.00	483.71
924.00	503.22
925.00	488.39
926.00	484.49
927.00	436.12
928.00	454.06
929.00	445.48
930.00	462.65
931.00	472.01
932.00	461.87
933.00	457.96
934.00	434.56
935.00	444.70
936.00	436.90
937.00	437.68
938.00	408.03
939.00	400.23
940.00	400.23
941.00	447.04
942.00	484.49
943.00	642.87
944.00	1059.48
945.00	1930.94
946.00	2963.12
947.00	3666.06
948.00	3660.60
949.00	3105.89
950.00	2303.87
951.00	1598.59
952.00	1043.88
953.00	729.47
954.00	533.64
955.00	480.59
956.00	456.40
957.00	488.39
958.00	450.94
959.00	462.65
960.00	448.60
961.00	440.02
962.00	425.98
963.00	412.71
964.00	433.78
965.00	446.26
966.00	463.43
967.00	463.43
968.00	451.72
969.00	430.66
970.00	459.53
971.00	469.67
972.00	489.95
973.00	456.40
974.00	443.92
975.00	442.36
976.00	448.60
977.00	439.24
978.00	447.82
979.00	470.45
980.00	491.51
981.00	457.18
982.00	440.02
983.00	445.48
984.00	453.28
985.00	430.66
986.00	423.64
987.00	440.80
988.00	468.11
989.00	484.49
990.00	482.15
991.00	452.50
992.00	416.62
993.00	397.89
994.00	407.25
995.00	425.20
996.00	408.81
997.00	418.96
998.00	404.91
999.00	469.67
1000.00	493.07
1001.00	509.46
1002.00	501.65
1003.00	500.09
1004.00	496.19
1005.00	447.82
1006.00	417.40
1007.00	400.23
1008.00	405.69
1009.00	425.20
1010.00	454.06
1011.00	462.65
1012.00	450.94
1013.00	442.36
1014.00	460.31
1015.00	450.16
1016.00	450.16
1017.00	430.66
1018.00	415.84
1019.00	426.76
1020.00	443.14
1021.00	463.43
1022.00	445.48
1023.00	419.74
1024.00	429.88
1025.00	430.66
1026.00	452.50
1027.00	472.01
1028.00	492.29
1029.00	484.49
1030.00	443.92
1031.00	422.08
1032.00	414.27
1033.00	424.42
1034.00	420.52
1035.00	443.14
1036.00	436.12
1037.00	444.70
1038.00	432.22
1039.00	443.14
1040.00	461.09
1041.00	494.63
1042.00	516.48
1043.00	524.28
1044.00	488.39
1045.00	527.40
1046.00	508.68
1047.00	521.94
1048.00	481.37
1049.00	474.35
1050.00	447.82
1051.00	437.68
1052.00	426.76
1053.00	447.04
1054.00	425.98
1055.00	421.30
1056.00	441.58
1057.00	451.72
1058.00	475.13
1059.00	457.18
1060.00	455.62
1061.00	464.99
1062.00	436.12
1063.00	440.02
1064.00	407.25
1065.00	432.22
1066.00	415.84
1067.00	431.44
1068.00	405.69
1069.00	430.66
1070.00	422.08
1071.00	452.50
1072.00	454.06
1073.00	473.57
1074.00	455.62
1075.00	447.82
1076.00	439.24
1077.00	441.58
1078.00	435.34
1079.00	447.82
1080.00	461.87
1081.00	461.87
1082.00	457.96
1083.00	472.01
1084.00	474.35
1085.00	437.68
1086.00	425.98
1087.00	445.48
1088.00	485.27
1089.00	463.43
1090.00	442.36
1091.00	444.70
1092.00	488.39
1093.00	489.95
1094.00	485.27
1095.00	460.31
1096.00	454.06
1097.00	464.99
1098.00	490.73
1099.00	533.64
1100.00	550.81
1101.00	570.31
1102.00	590.60
1103.00	584.35
1104.00	547.69
1105.00	514.92
1106.00	487.61
1107.00	488.39
1108.00	463.43
1109.00	460.31
1110.00	453.28
1111.00	453.28
1112.00	453.28
1113.00	441.58
1114.00	433.78
1115.00	446.26
1116.00	457.96
1117.00	472.01
1118.00	470.45
1119.00	480.59
1120.00	509.46
1121.00	532.86
1122.00	557.05
1123.00	518.04
1124.00	493.07
1125.00	427.54
1126.00	420.52
1127.00	388.53
1128.00	412.71
1129.00	408.03
1130.00	423.64
1131.00	422.08
1132.00	460.31
1133.00	464.99
1134.00	467.33
1135.00	447.82
1136.00	461.09
1137.00	490.73
1138.00	495.41
1139.00	503.22
1140.00	521.94
1141.00	535.20
1142.00	565.63
1143.00	538.32
1144.00	513.36
1145.00	456.40
1146.00	450.94
1147.00	481.37
1148.00	492.29
1149.00	490.73
1150.00	486.83
1151.00	497.75
1152.00	505.56
1153.00	488.39
1154.00	518.04
1155.00	578.89
1156.00	666.27
1157.00	729.47
1158.00	738.83
1159.00	705.28
1160.00	649.89
1161.00	600.74
1162.00	581.23
1163.00	629.60
1164.00	773.94
1165.00	1082.11
1166.00	1409.00
1167.00	1638.38
1168.00	1650.08
1169.00	1514.33
1170.00	1286.51
1171.00	1025.93
1172.00	820.75
1173.00	705.28
1174.00	650.67
1175.00	626.48
1176.00	615.56
1177.00	635.07
1178.00	593.72
1179.00	581.23
1180.00	569.53
1181.00	595.28
1182.00	638.19
1183.00	642.09
1184.00	657.69
1185.00	654.57
1186.00	653.79
1187.00	635.07
1188.00	636.63
1189.00	701.38
1190.00	777.06
1191.00	842.59
1192.00	896.43
1193.00	909.69
1194.00	897.21
1195.00	869.12
1196.00	856.64
1197.00	816.07
1198.00	846.49
1199.00	957.28
1200.00	1174.17
1201.00	1391.06
1202.00	1509.65
1203.00	1524.47
1204.00	1417.58
1205.00	1336.45
1206.00	1195.23
1207.00	1143.74
1208.00	1089.91
1209.00	1135.16
1210.00	1171.83
1211.00	1243.60
1212.00	1316.94
1213.00	1462.83
1214.00	1698.45
1215.00	1998.04
1216.00	2499.69
1217.00	5749.14
1218.00	21105.39
1219.00	41885.45
1220.00	59806.15
1221.00	65535.00
1222.00	65535.00
1223.00	65535.00
1224.00	65535.00
1225.00	65344.64
1226.00	56340.60
1227.00	40689.43
1228.00	22137.57
1229.00	10823.42
1230.00	5546.29
1231.00	3133.98
1232.00	2174.36
1233.00	1806.89
1234.00	1643.06
1235.00	1647.74
1236.00	2099.46
1237.00	3786.99
1238.00	7162.04
1239.00	11714.38
1240.00	15366.40
1241.00	16351.76
1242.00	14593.24
1243.00	11215.85
1244.00	7729.23
1245.00	4760.65
1246.00	2800.06
1247.00	1718.73
1248.00	1181.97
1249.00	926.07
1250.00	888.62
1251.00	984.59
1252.00	1119.56
1253.00	1188.99
1254.00	1203.04
1255.00	1192.11
1256.00	1179.63
1257.00	1148.42
1258.00	1084.45
1259.00	1016.57
1260.00	958.06
1261.00	915.15
1262.00	897.99
1263.00	861.32
1264.00	820.75
1265.00	766.14
1266.00	737.27
1267.00	750.53
1268.00	752.09
1269.00	775.50
1270.00	775.50
1271.00	807.48
1272.00	777.84
1273.00	786.42
1274.00	826.21
1275.00	1210.84
1276.00	2960.00
1277.00	7194.81
1278.00	14714.17
1279.00	22915.40
1280.00	28524.89
1281.00	28588.86
1282.00	24465.62
1283.00	17887.93
1284.00	11639.48
1285.00	6608.89
1286.00	3643.43
1287.00	2086.98
1288.00	1343.47
1289.00	1013.45
1290.00	897.21
1291.00	850.39
1292.00	833.23
1293.00	843.37
1294.00	871.46
1295.00	1098.49
1296.00	1753.06
1297.00	3038.80
1298.00	4798.88
1299.00	6246.11
1300.00	6816.42
1301.00	6274.20
1302.00	5117.97
1303.00	3721.45
1304.00	2537.92
1305.00	1675.82
1306.00	1228.00
1307.00	980.68
1308.00	881.60
1309.00	851.17
1310.00	793.44
1311.00	727.13
1312.00	625.70
1313.00	606.98
1314.00	599.96
1315.00	629.60
1316.00	631.16
1317.00	607.76
1318.00	571.09
1319.00	528.18
1320.00	516.48
1321.00	532.08
1322.00	532.08
1323.00	534.42
1324.00	510.24
1325.00	537.54
1326.00	572.65
1327.00	595.28
1328.00	609.32
1329.00	666.27
1330.00	1002.53
1331.00	1919.24
1332.00	3492.86
1333.00	5446.43
1334.00	6976.36
1335.00	7422.62
1336.00	6689.25
1337.00	5266.21
1338.00	3699.61
1339.00	2410.75
1340.00	1490.92
1341.00	1038.42
1342.00	816.07
1343.00	722.45
1344.00	635.07
1345.00	614.78
1346.00	606.98
1347.00	628.82
1348.00	617.90
1349.00	629.60
1350.00	630.38
1351.00	656.91
1352.00	660.03
1353.00	688.90
1354.00	705.28
1355.00	721.67
1356.00	746.63
1357.00	845.71
1358.00	1423.83
1359.00	3458.53
1360.00	7753.41
1361.00	14142.30
1362.00	20495.29
1363.00	23924.96
1364.00	22791.36
1365.00	18736.77
1366.00	13347.30
1367.00	8811.34
1368.00	5149.96
1369.00	3038.80
1370.00	1941.86
1371.00	1500.28
1372.00	2157.97
1373.00	5515.86
1374.00	12858.90
1375.00	24227.67
1376.00	35592.53
1377.00	42045.38
1378.00	41009.31
1379.00	34313.81
1380.00	24997.70
1381.00	16131.75
1382.00	9060.21
1383.00	4905.76
1384.00	2695.52
1385.00	1632.13
1386.00	1137.50
1387.00	924.51
1388.00	877.70
1389.00	837.13
1390.00	841.03
1391.00	806.70
1392.00	810.61
1393.00	798.12
1394.00	912.81
1395.00	1073.53
1396.00	1378.58
1397.00	1622.77
1398.00	1802.99
1399.00	1821.72
1400.00	1757.74
1401.00	1671.92
1402.00	2215.71
1403.00	5690.62
1404.00	14945.88
1405.00	30803.01
1406.00	46657.02
1407.00	57072.40
1408.00	58837.95
1409.00	54681.94
1410.00	44936.73
1411.00	31786.82
1412.00	18936.49
1413.00	9999.55
1414.00	5243.58
1415.00	3025.53
1416.00	2490.33
1417.00	3676.98
1418.00	6697.05
1419.00	11161.23
1420.00	15353.91
1421.00	17270.81
1422.00	16333.82
1423.00	13429.21
1424.00	9757.69
1425.00	6394.34
1426.00	3730.03
1427.00	2259.40
1428.00	1438.65
1429.00	1063.38
1430.00	880.82
1431.00	805.14
1432.00	787.98
1433.00	800.46
1434.00	793.44
1435.00	753.65
1436.00	724.79
1437.00	694.36
1438.00	680.32
1439.00	650.67
1440.00	633.50
1441.00	634.29
1442.00	606.20
1443.00	606.98
1444.00	582.01
1445.00	607.76
1446.00	609.32
1447.00	640.53
1448.00	621.02
1449.00	651.45
1450.00	685.78
1451.00	967.42
1452.00	1842.00
1453.00	3657.48
1454.00	6283.56
1455.00	8792.61
1456.00	10166.51
1457.00	9859.90
1458.00	8461.04
1459.00	6468.46
1460.00	4493.05
1461.00	2783.68
1462.00	1660.22
1463.00	1104.73
1464.00	804.36
1465.00	685.00
1466.00	628.82
1467.00	635.07
1468.00	628.04
1469.00	610.88
1470.00	591.38
1471.00	596.84
1472.00	622.58
1473.00	639.75
1474.00	627.26
1475.00	643.65
1476.00	642.09
1477.00	654.57
1478.00	651.45
1479.00	677.98
1480.00	720.10
1481.00	741.95
1482.00	785.64
1483.00	1181.97
1484.00	3009.15
1485.00	7544.33
1486.00	15695.63
1487.00	25536.02
1488.00	33324.55
1489.00	35437.27
1490.00	31914.76
1491.00	25071.04
1492.00	17445.57
1493.00	10712.63
1494.00	5889.57
1495.00	3166.74
1496.00	1892.71
1497.00	1235.02
1498.00	922.95
1499.00	773.16
1500.00	705.28
1501.00	662.37
1502.00	625.70
1503.00	629.60
1504.00	607.76
1505.00	614.78
1506.00	642.87
1507.00	677.20
1508.00	718.54
1509.00	949.48
1510.00	1769.44
1511.00	3300.16
1512.00	5560.33
1513.00	7608.30
1514.00	8741.90
1515.00	8497.70
1516.00	7341.48
1517.00	5652.39
1518.00	3914.94
1519.00	2427.92
1520.00	1541.63
1521.00	1071.19
1522.00	897.21
1523.00	807.48
1524.00	747.41
1525.00	702.94
1526.00	689.68
1527.00	767.70
1528.00	986.15
1529.00	2016.76
1530.00	4587.45
1531.00	9448.74
1532.00	15900.82
1533.00	21482.22
1534.00	23743.95
1535.00	22025.22
1536.00	18018.22
1537.00	13122.60
1538.00	8611.61
1539.00	4962.72
1540.00	2837.51
1541.00	1711.71
1542.00	1235.80
1543.00	915.15
1544.00	812.17
1545.00	729.47
1546.00	754.43
1547.00	750.53
1548.00	745.85
1549.00	726.35
1550.00	702.16
1551.00	703.72
1552.00	707.62
1553.00	696.70
1554.00	691.24
1555.00	707.62
1556.00	747.41
1557.00	779.40
1558.00	823.09
1559.00	870.68
1560.00	1011.89
1561.00	1752.28
1562.00	4653.77
1563.00	11248.61
1564.00	21912.10
1565.00	33815.28
1566.00	42185.82
1567.00	43668.94
1568.00	39055.74
1569.00	30791.31
1570.00	21703.01
1571.00	13420.63
1572.00	7626.25
1573.00	4450.92
1574.00	3881.39
1575.00	7651.99
1576.00	17300.46
1577.00	32886.09
1578.00	47579.97
1579.00	57041.20
1580.00	58281.68
1581.00	54324.61
1582.00	45152.83
1583.00	32861.12
1584.00	20333.01
1585.00	11172.16
1586.00	5931.70
1587.00	3184.69
1588.00	1895.05
1589.00	1257.65
1590.00	1004.09
1591.00	891.74
1592.00	869.90
1593.00	837.91
1594.00	774.72
1595.00	740.39
1596.00	711.52
1597.00	702.94
1598.00	653.01
1599.00	635.85
1600.00	610.88
1601.00	614.00
1602.00	583.57
1603.00	588.25
1604.00	583.57
1605.00	600.74
1606.00	611.66
1607.00	622.58
1608.00	625.70
1609.00	619.46
1610.00	603.86
1611.00	604.64
1612.00	594.50
1613.00	580.45
1614.00	557.05
1615.00	549.25
1616.00	564.85
1617.00	575.77
1618.00	558.61
1619.00	555.49
1620.00	577.33
1621.00	596.06
1622.00	587.47
1623.00	575.77
1624.00	593.72
1625.00	588.25
1626.00	578.11
1627.00	572.65
1628.00	590.60
1629.00	592.94
1630.00	578.89
1631.00	562.51
1632.00	556.27
1633.00	586.69
1634.00	607.76
1635.00	616.34
1636.00	594.50
1637.00	593.72
1638.00	610.10
1639.00	590.60
1640.00	567.97
1641.00	582.79
1642.00	639.75
1643.00	699.82
1644.00	779.40
1645.00	1309.92
1646.00	3423.42
1647.00	8116.20
1648.00	16113.03
1649.00	25423.68
1650.00	32740.97
1651.00	34848.24
1652.00	32006.83
1653.00	26057.96
1654.00	19020.75
1655.00	12281.57
1656.00	7042.67
1657.00	3855.64
1658.00	2204.78
1659.00	1392.62
1660.00	1003.31
1661.00	841.81
1662.00	799.68
1663.00	913.59
1664.00	1465.18
1665.00	2843.75
1666.00	5323.94
1667.00	8430.61
1668.00	11098.04
1669.00	12170.79
1670.00	11525.58
1671.00	9712.44
1672.00	7424.18
1673.00	5069.60
1674.00	3162.06
1675.00	1902.86
1676.00	1243.60
1677.00	863.66
1678.00	676.41
1679.00	577.33
1680.00	530.52
1681.00	528.96
1682.00	538.32
1683.00	522.72
1684.00	521.94
1685.00	507.90
1686.00	508.68
1687.00	504.78
1688.00	511.02
1689.00	536.76
1690.00	516.48
1691.00	523.50
1692.00	505.56
1693.00	521.16
1694.00	506.34
1695.00	504.00
1696.00	508.68
1697.00	529.74
1698.00	556.27
1699.00	557.83
1700.00	543.00
1701.00	535.20
1702.00	513.36
1703.00	560.95
1704.00	553.93
1705.00	575.77
1706.00	548.47
1707.00	564.07
1708.00	614.00
1709.00	872.24
1710.00	1891.93
1711.00	4049.13
1712.00	7715.19
1713.00	12106.81
1714.00	15808.76
1715.00	17238.05
1716.00	16238.64
1717.00	13521.27
1718.00	10219.56
1719.00	6912.38
1720.00	4310.49
1721.00	2528.56
1722.00	1582.98
1723.00	1068.84
1724.00	819.19
1725.00	675.63
1726.00	603.86
1727.00	559.39
1728.00	497.75
1729.00	501.65
1730.00	528.96
1731.00	572.65
1732.00	550.81
1733.00	541.44
1734.00	542.22
1735.00	563.29
1736.00	548.47
1737.00	534.42
1738.00	531.30
1739.00	524.28
1740.00	523.50
1741.00	503.22
1742.00	491.51
1743.00	502.43
1744.00	509.46
1745.00	524.28
1746.00	518.04
1747.00	498.53
1748.00	524.28
1749.00	537.54
1750.00	567.19
1751.00	581.23
1752.00	606.98
1753.00	619.46
1754.00	606.20
1755.00	584.35
1756.00	584.35
1757.00	589.81
1758.00	584.35
1759.00	594.50
1760.00	580.45
1761.00	591.38
1762.00	611.66
1763.00	669.39
1764.00	817.63
1765.00	1501.84
1766.00	3729.25
1767.00	8140.38
1768.00	15135.46
1769.00	22985.62
1770.00	28939.16
1771.00	30542.43
1772.00	27969.40
1773.00	22788.24
1774.00	16681.00
1775.00	10931.86
1776.00	6532.44
1777.00	3771.38
1778.00	2210.25
1779.00	1371.55
1780.00	1013.45
1781.00	806.70
1782.00	731.03
1783.00	660.03
1784.00	630.38
1785.00	622.58
1786.00	603.86
1787.00	604.64
1788.00	594.50
1789.00	592.94
1790.00	618.68
1791.00	631.94
1792.00	828.55
1793.00	1610.29
1794.00	3541.23
1795.00	6865.57
1796.00	11463.16
1797.00	15896.92
1798.00	18573.71
1799.00	18385.69
1800.00	16142.67
1801.00	12574.14
1802.00	8947.09
1803.00	5670.34
1804.00	3446.05
1805.00	2043.29
1806.00	1294.32
1807.00	923.73
1808.00	744.29
1809.00	607.76
1810.00	552.37
1811.00	506.34
1812.00	538.32
1813.00	550.03
1814.00	557.05
1815.00	532.08
1816.00	517.26
1817.00	496.97
1818.00	487.61
1819.00	472.79
1820.00	487.61
1821.00	540.66
1822.00	638.97
1823.00	709.96
1824.00	695.92
1825.00	678.76
1826.00	656.13
1827.00	626.48
1828.00	556.27
1829.00	494.63
1830.00	477.47
1831.00	482.93
1832.00	479.81
1833.00	475.13
1834.00	464.99
1835.00	500.09
1836.00	496.97
1837.00	478.25
1838.00	422.08
1839.00	426.76
1840.00	438.46
1841.00	453.28
1842.00	462.65
1843.00	452.50
1844.00	468.11
1845.00	433.78
1846.00	454.06
1847.00	461.87
1848.00	458.75
1849.00	442.36
1850.00	415.84
1851.00	440.02
1852.00	463.43
1853.00	480.59
1854.00	479.03
1855.00	454.06
1856.00	428.32
1857.00	408.81
1858.00	416.62
1859.00	447.82
1860.00	450.16
1861.00	457.96
1862.00	433.78
1863.00	455.62
1864.00	437.68
1865.00	461.09
1866.00	466.55
1867.00	471.23
1868.00	476.69
1869.00	447.04
1870.00	457.96
1871.00	456.40
1872.00	479.03
1873.00	464.21
1874.00	426.76
1875.00	415.84
1876.00	418.18
1877.00	440.80
1878.00	436.90
1879.00	462.65
1880.00	443.92
1881.00	452.50
1882.00	435.34
1883.00	429.10
1884.00	440.80
1885.00	456.40
1886.00	486.05
1887.00	463.43
1888.00	431.44
1889.00	444.70
1890.00	476.69
1891.00	470.45
1892.00	456.40
1893.00	430.66
1894.00	439.24
1895.00	401.79
1896.00	402.57
1897.00	405.69
1898.00	448.60
1899.00	472.79
1900.00	485.27
1901.00	478.25
1902.00	457.18
1903.00	479.81
1904.00	465.77
1905.00	489.17
1906.00	474.35
1907.00	502.44
1908.00	565.63
1909.00	621.02
1910.00	645.99
1911.00	593.72
1912.00	571.09
1913.00	557.83
1914.00	535.98
1915.00	521.94
1916.00	500.87
1917.00	491.51
1918.00	444.70
1919.00	426.76
1920.00	438.46
1921.00	457.18
1922.00	491.51
1923.00	460.31
1924.00	475.91
1925.00	446.26
1926.00	439.24
1927.00	430.66
1928.00	425.20
1929.00	440.02
1930.00	433.00
1931.00	423.64
1932.00	403.35
1933.00	383.07
1934.00	405.69
1935.00	459.53
1936.00	477.47
1937.00	482.93
1938.00	468.11
1939.00	482.15
1940.00	501.65
1941.00	496.97
1942.00	510.24
1943.00	488.39
1944.00	516.48
1945.00	535.20
1946.00	615.56
1947.00	970.54
1948.00	2058.11
1949.00	4067.07
1950.00	7176.08
1951.00	10673.62
1952.00	13543.90
1953.00	14508.98
1954.00	13676.53
1955.00	11704.24
1956.00	9336.40
1957.00	6919.40
1958.00	4774.69
1959.00	3187.03
1960.00	2040.17
1961.00	1349.71
1962.00	940.90
1963.00	751.31
1964.00	650.67
1965.00	589.81
1966.00	565.63
1967.00	535.20
1968.00	504.78
1969.00	515.70
1970.00	490.73
1971.00	526.62
1972.00	505.56
1973.00	539.10
1974.00	541.44
1975.00	649.11
1976.00	742.73
1977.00	900.33
1978.00	1064.94
1979.00	1215.52
1980.00	1263.11
1981.00	1226.44
1982.00	1139.84
1983.00	1021.25
1984.00	857.42
1985.00	714.64
1986.00	613.22
1987.00	583.57
1988.00	553.93
1989.00	536.76
1990.00	513.36
1991.00	521.16
1992.00	494.63
1993.00	497.75
1994.00	498.53
1995.00	521.94
1996.00	500.09
1997.00	494.63
1998.00	495.41
1999.00	504.00
2000.00	476.69
2001.00	470.45
2002.00	493.07
2003.00	514.92
2004.00	524.28
2005.00	481.37
2006.00	478.25
2007.00	477.47
2008.00	502.43
2009.00	521.16
2010.00	520.38
2011.00	500.87
2012.00	470.45
2013.00	503.22
2014.00	511.80
2015.00	539.88
2016.00	530.52
2017.00	547.69
2018.00	578.89
2019.00	626.48
2020.00	751.31
2021.00	934.65
2022.00	1180.41
2023.00	1412.12
2024.00	1941.86
2025.00	3504.56
2026.00	6620.60
2027.00	11788.50
2028.00	18503.50
2029.00	25074.16
2030.00	29340.96
2031.00	30041.56
2032.00	27949.90
2033.00	23987.37
2034.00	19041.82
2035.00	13949.59
2036.00	9542.36
2037.00	6226.61
2038.00	3931.32
2039.00	2416.21
2040.00	1604.83
2041.00	1135.94
2042.00	901.89
2043.00	739.61
2044.00	702.16
2045.00	692.80
2046.00	687.34
2047.00	650.67
>>>>>End Processed Spectral Data<<<<<
