SpectraSuite Data File
++++++++++++++++++++++++++++++++++++
Date: Thu Nov 16 13:55:20 EST 2017
User: cheriyan
Dark Spectrum Present: No
Reference Spectrum Present: No
Number of Sampled Component Spectra: 1
Spectrometers: USB2+H05261
Integration Time (usec): 100000 (USB2+H05261)
Spectra Averaged: 1 (USB2+H05261)
Boxcar Smoothing: 1 (USB2+H05261)
Correct for Electrical Dark: No (USB2+H05261)
Strobe/Lamp Enabled: No (USB2+H05261)
Correct for Detector Non-linearity: No (USB2+H05261)
Correct for Stray Light: No (USB2+H05261)
Number of Pixels in Processed Spectrum: 2048
>>>>>Begin Processed Spectral Data<<<<<
0.00	273.84
1.00	273.84
2.00	273.06
3.00	266.04
4.00	263.70
5.00	272.28
6.00	255.90
7.00	242.64
8.00	213.77
9.00	232.49
10.00	239.51
11.00	237.95
12.00	237.17
13.00	203.63
14.00	223.91
15.00	248.10
16.00	291.79
17.00	297.25
18.00	280.08
19.00	291.79
20.00	287.11
21.00	280.86
22.00	269.94
23.00	264.48
24.00	293.35
25.00	314.41
26.00	337.82
27.00	354.98
28.00	354.98
29.00	344.06
30.00	346.40
31.00	350.30
32.00	390.09
33.00	371.36
34.00	386.97
35.00	382.29
36.00	379.17
37.00	376.05
38.00	383.07
39.00	389.31
40.00	406.47
41.00	406.47
42.00	436.90
43.00	451.72
44.00	442.36
45.00	447.82
46.00	421.30
47.00	440.02
48.00	436.12
49.00	448.60
50.00	434.56
51.00	411.15
52.00	418.96
53.00	411.15
54.00	391.65
55.00	383.07
56.00	386.19
57.00	416.62
58.00	422.86
59.00	425.20
60.00	432.22
61.00	408.81
62.00	384.63
63.00	365.90
64.00	372.93
65.00	415.84
66.00	418.18
67.00	411.15
68.00	391.65
69.00	402.57
70.00	413.49
71.00	417.40
72.00	401.01
73.00	393.21
74.00	389.31
75.00	395.55
76.00	361.22
77.00	349.52
78.00	351.86
79.00	380.73
80.00	398.67
81.00	390.09
82.00	379.95
83.00	391.65
84.00	419.74
85.00	425.98
86.00	404.13
87.00	389.31
88.00	394.77
89.00	383.85
90.00	383.07
91.00	401.79
92.00	419.74
93.00	409.59
94.00	386.97
95.00	386.97
96.00	392.43
97.00	393.21
98.00	374.49
99.00	380.73
100.00	369.80
101.00	371.36
102.00	365.12
103.00	381.51
104.00	397.89
105.00	390.09
106.00	403.35
107.00	400.23
108.00	422.08
109.00	398.67
110.00	399.45
111.00	392.43
112.00	404.13
113.00	404.13
114.00	394.77
115.00	385.41
116.00	377.61
117.00	379.95
118.00	388.53
119.00	385.41
120.00	380.73
121.00	382.29
122.00	416.62
123.00	440.80
124.00	454.06
125.00	444.70
126.00	411.93
127.00	415.84
128.00	412.71
129.00	435.34
130.00	404.13
131.00	400.23
132.00	401.79
133.00	411.93
134.00	408.03
135.00	387.75
136.00	405.69
137.00	403.35
138.00	418.96
139.00	411.15
140.00	402.57
141.00	364.34
142.00	357.32
143.00	374.49
144.00	425.98
145.00	444.70
146.00	461.09
147.00	468.11
148.00	485.27
149.00	479.81
150.00	457.96
151.00	418.96
152.00	395.55
153.00	397.89
154.00	408.81
155.00	413.49
156.00	411.15
157.00	395.55
158.00	399.45
159.00	392.43
160.00	399.45
161.00	400.23
162.00	413.49
163.00	409.59
164.00	398.67
165.00	402.57
166.00	405.69
167.00	412.71
168.00	412.71
169.00	415.84
170.00	421.30
171.00	400.23
172.00	393.21
173.00	381.51
174.00	389.31
175.00	383.85
176.00	398.67
177.00	394.77
178.00	394.77
179.00	383.85
180.00	379.95
181.00	393.21
182.00	397.11
183.00	437.68
184.00	436.12
185.00	421.30
186.00	397.11
187.00	390.87
188.00	390.09
189.00	389.31
190.00	374.49
191.00	402.57
192.00	389.31
193.00	429.88
194.00	453.28
195.00	491.51
196.00	507.90
197.00	509.46
198.00	510.24
199.00	475.13
200.00	437.68
201.00	415.06
202.00	414.27
203.00	403.35
204.00	414.27
205.00	400.23
206.00	420.52
207.00	433.78
208.00	461.09
209.00	440.02
210.00	425.20
211.00	416.62
212.00	428.32
213.00	399.45
214.00	375.27
215.00	379.17
216.00	386.19
217.00	404.13
218.00	390.87
219.00	390.09
220.00	387.75
221.00	386.19
222.00	412.71
223.00	432.22
224.00	422.08
225.00	371.36
226.00	347.18
227.00	370.58
228.00	386.97
229.00	403.35
230.00	372.15
231.00	403.35
232.00	404.13
233.00	447.04
234.00	409.59
235.00	412.71
236.00	416.62
237.00	403.35
238.00	407.25
239.00	372.93
240.00	393.21
241.00	390.09
242.00	415.06
243.00	428.32
244.00	412.71
245.00	417.40
246.00	401.01
247.00	421.30
248.00	418.18
249.00	436.90
250.00	429.10
251.00	413.49
252.00	406.47
253.00	426.76
254.00	451.72
255.00	486.83
256.00	458.75
257.00	440.80
258.00	429.88
259.00	432.22
260.00	442.36
261.00	418.18
262.00	416.62
263.00	404.13
264.00	422.86
265.00	446.26
266.00	507.90
267.00	532.08
268.00	551.59
269.00	543.78
270.00	557.83
271.00	560.17
272.00	596.06
273.00	612.44
274.00	631.16
275.00	605.42
276.00	597.62
277.00	550.03
278.00	531.30
279.00	483.71
280.00	477.47
281.00	460.31
282.00	430.66
283.00	440.02
284.00	438.46
285.00	461.09
286.00	435.34
287.00	419.74
288.00	432.22
289.00	435.34
290.00	435.34
291.00	420.52
292.00	429.10
293.00	436.90
294.00	446.26
295.00	435.34
296.00	419.74
297.00	407.25
298.00	397.11
299.00	385.41
300.00	379.17
301.00	382.29
302.00	391.65
303.00	397.89
304.00	436.12
305.00	457.18
306.00	503.22
307.00	524.28
308.00	584.35
309.00	592.16
310.00	643.65
311.00	631.16
312.00	606.98
313.00	531.30
314.00	466.55
315.00	431.44
316.00	421.30
317.00	420.52
318.00	443.92
319.00	440.02
320.00	479.81
321.00	474.35
322.00	479.03
323.00	420.52
324.00	403.35
325.00	400.23
326.00	393.21
327.00	409.59
328.00	401.01
329.00	416.62
330.00	392.43
331.00	418.96
332.00	440.80
333.00	472.01
334.00	431.44
335.00	415.06
336.00	384.63
337.00	398.67
338.00	406.47
339.00	424.42
340.00	432.22
341.00	441.58
342.00	437.68
343.00	425.20
344.00	413.49
345.00	415.06
346.00	486.05
347.00	584.35
348.00	698.26
349.00	722.45
350.00	714.64
351.00	649.11
352.00	609.32
353.00	555.49
354.00	544.56
355.00	519.60
356.00	478.25
357.00	447.82
358.00	440.80
359.00	466.55
360.00	479.81
361.00	470.45
362.00	459.53
363.00	436.12
364.00	414.27
365.00	422.86
366.00	447.82
367.00	465.77
368.00	486.05
369.00	464.99
370.00	450.94
371.00	440.80
372.00	421.30
373.00	411.15
374.00	379.17
375.00	396.33
376.00	406.47
377.00	425.20
378.00	402.57
379.00	417.40
380.00	419.74
381.00	430.66
382.00	416.62
383.00	386.97
384.00	393.21
385.00	386.19
386.00	398.67
387.00	384.63
388.00	401.01
389.00	410.37
390.00	425.98
391.00	423.64
392.00	450.94
393.00	444.70
394.00	445.48
395.00	425.20
396.00	441.58
397.00	451.72
398.00	415.84
399.00	411.15
400.00	411.93
401.00	411.15
402.00	403.35
403.00	384.63
404.00	396.33
405.00	387.75
406.00	379.95
407.00	390.87
408.00	401.01
409.00	421.30
410.00	403.35
411.00	404.91
412.00	406.47
413.00	405.69
414.00	380.73
415.00	362.78
416.00	382.29
417.00	412.71
418.00	442.36
419.00	459.53
420.00	458.74
421.00	446.26
422.00	434.56
423.00	404.13
424.00	392.43
425.00	400.23
426.00	418.18
427.00	429.10
428.00	422.08
429.00	447.82
430.00	439.24
431.00	428.32
432.00	424.42
433.00	431.44
434.00	431.44
435.00	436.12
436.00	426.76
437.00	429.88
438.00	406.47
439.00	416.62
440.00	433.00
441.00	455.62
442.00	472.79
443.00	449.38
444.00	436.90
445.00	428.32
446.00	457.96
447.00	460.31
448.00	451.72
449.00	429.88
450.00	425.20
451.00	433.78
452.00	418.96
453.00	424.42
454.00	404.13
455.00	423.64
456.00	428.32
457.00	447.04
458.00	451.72
459.00	439.24
460.00	424.42
461.00	412.71
462.00	398.67
463.00	413.49
464.00	425.20
465.00	439.24
466.00	423.64
467.00	409.59
468.00	413.49
469.00	437.68
470.00	457.96
471.00	461.87
472.00	429.88
473.00	425.20
474.00	444.70
475.00	456.40
476.00	451.72
477.00	423.64
478.00	428.32
479.00	407.25
480.00	414.27
481.00	411.93
482.00	416.62
483.00	405.69
484.00	411.93
485.00	420.52
486.00	444.70
487.00	418.18
488.00	411.15
489.00	401.79
490.00	433.78
491.00	458.75
492.00	437.68
493.00	435.34
494.00	446.26
495.00	448.60
496.00	436.90
497.00	383.85
498.00	396.33
499.00	360.44
500.00	411.93
501.00	393.99
502.00	433.78
503.00	392.43
504.00	387.75
505.00	372.93
506.00	388.53
507.00	384.63
508.00	396.33
509.00	400.23
510.00	430.66
511.00	434.56
512.00	398.67
513.00	415.84
514.00	422.08
515.00	450.94
516.00	432.22
517.00	424.42
518.00	433.78
519.00	411.15
520.00	401.79
521.00	400.23
522.00	398.67
523.00	418.96
524.00	396.33
525.00	442.36
526.00	422.86
527.00	451.72
528.00	418.18
529.00	429.10
530.00	437.68
531.00	454.84
532.00	475.91
533.00	435.34
534.00	443.14
535.00	426.76
536.00	441.58
537.00	422.86
538.00	415.84
539.00	426.76
540.00	434.56
541.00	420.52
542.00	413.49
543.00	397.89
544.00	417.40
545.00	430.66
546.00	438.46
547.00	444.70
548.00	449.38
549.00	449.38
550.00	445.48
551.00	444.70
552.00	445.48
553.00	439.24
554.00	452.50
555.00	463.43
556.00	479.81
557.00	455.62
558.00	465.77
559.00	436.12
560.00	406.47
561.00	378.39
562.00	400.23
563.00	413.49
564.00	413.49
565.00	392.43
566.00	404.91
567.00	406.47
568.00	398.67
569.00	397.11
570.00	383.07
571.00	423.64
572.00	410.37
573.00	461.87
574.00	435.34
575.00	464.21
576.00	425.98
577.00	431.44
578.00	408.03
579.00	409.59
580.00	405.69
581.00	421.30
582.00	447.82
583.00	451.72
584.00	450.16
585.00	447.82
586.00	452.50
587.00	429.88
588.00	405.69
589.00	393.21
590.00	411.15
591.00	418.96
592.00	428.32
593.00	419.74
594.00	411.15
595.00	398.67
596.00	401.79
597.00	431.44
598.00	425.98
599.00	436.12
600.00	450.16
601.00	475.13
602.00	479.81
603.00	441.58
604.00	432.22
605.00	416.62
606.00	415.84
607.00	418.18
608.00	411.15
609.00	411.93
610.00	436.90
611.00	434.56
612.00	450.94
613.00	428.32
614.00	421.30
615.00	392.43
616.00	386.97
617.00	401.01
618.00	397.89
619.00	415.84
620.00	414.27
621.00	459.53
622.00	431.44
623.00	436.12
624.00	396.33
625.00	395.55
626.00	393.21
627.00	410.37
628.00	432.22
629.00	468.11
630.00	468.11
631.00	467.33
632.00	433.00
633.00	428.32
634.00	410.37
635.00	433.00
636.00	443.92
637.00	476.69
638.00	474.35
639.00	457.18
640.00	465.77
641.00	433.00
642.00	455.62
643.00	422.08
644.00	429.88
645.00	411.15
646.00	393.21
647.00	406.47
648.00	397.11
649.00	411.15
650.00	421.30
651.00	436.12
652.00	447.82
653.00	429.88
654.00	464.99
655.00	463.43
656.00	469.67
657.00	408.03
658.00	407.25
659.00	409.59
660.00	423.64
661.00	415.84
662.00	415.84
663.00	414.27
664.00	421.30
665.00	430.66
666.00	473.57
667.00	461.09
668.00	452.50
669.00	429.88
670.00	443.14
671.00	457.18
672.00	421.30
673.00	401.01
674.00	373.71
675.00	409.59
676.00	426.76
677.00	425.20
678.00	445.48
679.00	443.92
680.00	465.77
681.00	440.02
682.00	438.46
683.00	423.64
684.00	438.46
685.00	435.34
686.00	440.80
687.00	441.58
688.00	449.38
689.00	442.36
690.00	422.08
691.00	425.98
692.00	434.56
693.00	457.18
694.00	456.40
695.00	463.43
696.00	442.36
697.00	430.66
698.00	413.49
699.00	404.13
700.00	408.81
701.00	406.47
702.00	421.30
703.00	410.37
704.00	436.90
705.00	422.08
706.00	433.00
707.00	413.49
708.00	439.24
709.00	445.48
710.00	474.35
711.00	466.55
712.00	449.38
713.00	416.62
714.00	422.86
715.00	443.92
716.00	451.72
717.00	445.48
718.00	461.87
719.00	452.50
720.00	465.77
721.00	444.70
722.00	475.91
723.00	468.89
724.00	462.65
725.00	468.89
726.00	447.82
727.00	454.84
728.00	444.70
729.00	450.16
730.00	441.58
731.00	447.82
732.00	452.50
733.00	461.87
734.00	450.94
735.00	489.95
736.00	501.65
737.00	507.90
738.00	473.57
739.00	475.91
740.00	458.74
741.00	461.87
742.00	456.40
743.00	463.43
744.00	463.43
745.00	461.09
746.00	437.68
747.00	440.80
748.00	439.24
749.00	475.91
750.00	469.67
751.00	474.35
752.00	476.69
753.00	465.77
754.00	447.82
755.00	407.25
756.00	397.89
757.00	416.62
758.00	430.66
759.00	459.53
760.00	473.57
761.00	487.61
762.00	484.49
763.00	457.18
764.00	456.40
765.00	438.46
766.00	428.32
767.00	397.11
768.00	400.23
769.00	395.55
770.00	429.88
771.00	432.22
772.00	438.46
773.00	422.08
774.00	437.68
775.00	457.18
776.00	454.84
777.00	438.46
778.00	440.02
779.00	468.11
780.00	517.26
781.00	560.95
782.00	571.87
783.00	610.10
784.00	565.63
785.00	534.42
786.00	464.99
787.00	440.80
788.00	417.40
789.00	388.53
790.00	415.06
791.00	437.68
792.00	456.40
793.00	433.78
794.00	406.47
795.00	381.51
796.00	386.19
797.00	434.56
798.00	483.71
799.00	486.05
800.00	469.67
801.00	461.87
802.00	478.25
803.00	492.29
804.00	464.99
805.00	452.50
806.00	449.38
807.00	479.81
808.00	502.43
809.00	465.77
810.00	468.89
811.00	457.18
812.00	470.45
813.00	449.38
814.00	434.56
815.00	433.00
816.00	409.59
817.00	408.81
818.00	421.30
819.00	414.27
820.00	448.60
821.00	472.01
822.00	553.93
823.00	552.37
824.00	538.32
825.00	490.73
826.00	479.03
827.00	489.95
828.00	487.61
829.00	446.26
830.00	443.92
831.00	442.36
832.00	474.35
833.00	472.79
834.00	479.03
835.00	481.37
836.00	454.06
837.00	444.70
838.00	435.34
839.00	458.75
840.00	489.17
841.00	510.24
842.00	504.00
843.00	487.61
844.00	488.39
845.00	495.41
846.00	477.47
847.00	461.09
848.00	443.92
849.00	448.60
850.00	442.36
851.00	456.40
852.00	451.72
853.00	437.68
854.00	418.96
855.00	401.01
856.00	404.91
857.00	422.86
858.00	438.46
859.00	433.78
860.00	436.90
861.00	425.98
862.00	464.21
863.00	452.50
864.00	439.24
865.00	417.40
866.00	401.01
867.00	430.66
868.00	429.10
869.00	457.18
870.00	433.00
871.00	436.90
872.00	412.71
873.00	430.66
874.00	436.12
875.00	455.62
876.00	461.09
877.00	448.60
878.00	425.20
879.00	425.98
880.00	398.67
881.00	405.69
882.00	395.55
883.00	436.12
884.00	440.02
885.00	452.50
886.00	451.72
887.00	459.53
888.00	444.70
889.00	447.04
890.00	442.36
891.00	461.87
892.00	452.50
893.00	441.58
894.00	411.93
895.00	413.49
896.00	404.13
897.00	427.54
898.00	413.49
899.00	447.04
900.00	473.57
901.00	472.01
902.00	471.23
903.00	502.44
904.00	633.50
905.00	740.39
906.00	800.46
907.00	792.66
908.00	759.11
909.00	1004.87
910.00	1007.99
911.00	1059.48
912.00	858.20
913.00	896.43
914.00	845.71
915.00	742.73
916.00	626.48
917.00	564.85
918.00	496.19
919.00	461.87
920.00	448.60
921.00	436.90
922.00	424.42
923.00	407.25
924.00	436.12
925.00	443.14
926.00	476.69
927.00	437.68
928.00	450.94
929.00	416.62
930.00	442.36
931.00	436.90
932.00	452.50
933.00	455.62
934.00	442.36
935.00	433.00
936.00	446.26
937.00	466.55
938.00	469.67
939.00	454.84
940.00	458.75
941.00	473.57
942.00	502.43
943.00	630.38
944.00	1040.76
945.00	1911.44
946.00	2963.12
947.00	3701.95
948.00	3725.35
949.00	3203.41
950.00	2415.43
951.00	1688.31
952.00	1071.97
953.00	720.10
954.00	521.94
955.00	464.99
956.00	447.04
957.00	455.62
958.00	460.31
959.00	442.36
960.00	450.94
961.00	435.34
962.00	434.56
963.00	419.74
964.00	421.30
965.00	432.22
966.00	455.62
967.00	462.65
968.00	443.14
969.00	414.27
970.00	401.01
971.00	423.64
972.00	421.30
973.00	421.30
974.00	401.79
975.00	401.01
976.00	412.71
977.00	424.42
978.00	433.00
979.00	425.20
980.00	431.44
981.00	438.46
982.00	442.36
983.00	447.04
984.00	425.20
985.00	447.04
986.00	425.20
987.00	443.92
988.00	441.58
989.00	454.84
990.00	453.28
991.00	404.91
992.00	391.65
993.00	376.05
994.00	397.11
995.00	390.87
996.00	394.77
997.00	416.62
998.00	425.98
999.00	454.84
1000.00	450.16
1001.00	473.57
1002.00	443.14
1003.00	465.77
1004.00	467.33
1005.00	504.78
1006.00	481.37
1007.00	468.11
1008.00	424.42
1009.00	432.22
1010.00	450.94
1011.00	450.94
1012.00	458.75
1013.00	451.72
1014.00	448.60
1015.00	415.06
1016.00	397.89
1017.00	427.54
1018.00	457.96
1019.00	466.55
1020.00	465.77
1021.00	452.50
1022.00	447.04
1023.00	429.88
1024.00	442.36
1025.00	461.87
1026.00	487.61
1027.00	480.59
1028.00	446.26
1029.00	422.86
1030.00	411.93
1031.00	439.24
1032.00	443.14
1033.00	440.80
1034.00	427.54
1035.00	425.98
1036.00	455.62
1037.00	468.11
1038.00	485.27
1039.00	474.35
1040.00	481.37
1041.00	485.27
1042.00	503.22
1043.00	518.04
1044.00	556.27
1045.00	610.88
1046.00	596.84
1047.00	567.97
1048.00	488.39
1049.00	463.43
1050.00	432.22
1051.00	447.82
1052.00	449.38
1053.00	462.65
1054.00	454.06
1055.00	462.65
1056.00	429.10
1057.00	434.56
1058.00	459.53
1059.00	471.23
1060.00	442.36
1061.00	409.59
1062.00	418.96
1063.00	448.60
1064.00	468.89
1065.00	481.37
1066.00	489.17
1067.00	468.89
1068.00	478.25
1069.00	486.05
1070.00	493.07
1071.00	473.57
1072.00	460.31
1073.00	450.16
1074.00	465.77
1075.00	454.84
1076.00	461.87
1077.00	450.16
1078.00	445.48
1079.00	475.13
1080.00	496.97
1081.00	479.81
1082.00	458.74
1083.00	431.44
1084.00	457.18
1085.00	438.46
1086.00	450.16
1087.00	436.90
1088.00	426.76
1089.00	397.89
1090.00	413.49
1091.00	432.22
1092.00	464.99
1093.00	452.50
1094.00	449.38
1095.00	451.72
1096.00	444.70
1097.00	459.53
1098.00	472.01
1099.00	526.62
1100.00	563.29
1101.00	579.67
1102.00	572.65
1103.00	557.83
1104.00	531.30
1105.00	514.14
1106.00	494.63
1107.00	493.85
1108.00	445.48
1109.00	449.38
1110.00	403.35
1111.00	413.49
1112.00	407.25
1113.00	469.67
1114.00	507.12
1115.00	514.92
1116.00	482.93
1117.00	447.04
1118.00	448.60
1119.00	461.09
1120.00	473.57
1121.00	486.83
1122.00	518.82
1123.00	533.64
1124.00	489.95
1125.00	443.14
1126.00	447.04
1127.00	452.50
1128.00	468.89
1129.00	416.62
1130.00	432.22
1131.00	429.10
1132.00	469.67
1133.00	455.62
1134.00	447.04
1135.00	454.84
1136.00	483.71
1137.00	517.26
1138.00	530.52
1139.00	556.27
1140.00	553.93
1141.00	557.83
1142.00	515.70
1143.00	493.85
1144.00	464.21
1145.00	447.04
1146.00	468.11
1147.00	493.07
1148.00	514.92
1149.00	490.73
1150.00	498.53
1151.00	511.02
1152.00	504.78
1153.00	495.41
1154.00	504.78
1155.00	564.07
1156.00	638.97
1157.00	714.64
1158.00	756.77
1159.00	745.85
1160.00	696.70
1161.00	662.37
1162.00	604.64
1163.00	663.15
1164.00	781.74
1165.00	1085.23
1166.00	1385.60
1167.00	1666.46
1168.00	1696.89
1169.00	1553.34
1170.00	1282.61
1171.00	1054.80
1172.00	857.42
1173.00	714.64
1174.00	624.14
1175.00	598.40
1176.00	599.96
1177.00	604.64
1178.00	602.30
1179.00	582.79
1180.00	589.82
1181.00	600.74
1182.00	625.70
1183.00	637.41
1184.00	632.72
1185.00	645.21
1186.00	667.83
1187.00	698.26
1188.00	702.16
1189.00	738.83
1190.00	784.86
1191.00	844.15
1192.00	860.54
1193.00	867.56
1194.00	874.58
1195.00	854.30
1196.00	845.71
1197.00	832.45
1198.00	865.22
1199.00	988.49
1200.00	1189.77
1201.00	1398.86
1202.00	1499.50
1203.00	1524.47
1204.00	1419.92
1205.00	1302.12
1206.00	1146.86
1207.00	1087.57
1208.00	1081.33
1209.00	1141.40
1210.00	1207.72
1211.00	1256.87
1212.00	1355.95
1213.00	1480.00
1214.00	1705.47
1215.00	1985.55
1216.00	2518.42
1217.00	5779.56
1218.00	21063.26
1219.00	41833.17
1220.00	59762.46
1221.00	65535.00
1222.00	65535.00
1223.00	65535.00
1224.00	65535.00
1225.00	65283.00
1226.00	56264.92
1227.00	40602.05
1228.00	22046.29
1229.00	10791.43
1230.00	5533.03
1231.00	3204.97
1232.00	2248.47
1233.00	1888.03
1234.00	1723.41
1235.00	1647.74
1236.00	2108.82
1237.00	3717.55
1238.00	7079.34
1239.00	11605.16
1240.00	15314.13
1241.00	16349.42
1242.00	14494.94
1243.00	11183.86
1244.00	7657.45
1245.00	4816.04
1246.00	2819.57
1247.00	1767.88
1248.00	1218.64
1249.00	941.68
1250.00	907.35
1251.00	970.54
1252.00	1107.85
1253.00	1220.98
1254.00	1271.69
1255.00	1242.04
1256.00	1196.01
1257.00	1141.40
1258.00	1088.35
1259.00	966.64
1260.00	915.15
1261.00	880.04
1262.00	887.06
1263.00	855.86
1264.00	829.33
1265.00	809.05
1266.00	786.42
1267.00	774.72
1268.00	763.79
1269.00	756.77
1270.00	755.99
1271.00	791.10
1272.00	823.87
1273.00	858.98
1274.00	899.55
1275.00	1240.48
1276.00	3006.81
1277.00	7236.16
1278.00	14727.43
1279.00	22967.68
1280.00	28597.45
1281.00	28660.64
1282.00	24488.24
1283.00	17976.09
1284.00	11779.92
1285.00	6750.89
1286.00	3697.27
1287.00	2133.79
1288.00	1344.25
1289.00	1035.30
1290.00	916.71
1291.00	908.13
1292.00	917.49
1293.00	913.59
1294.00	912.81
1295.00	1057.92
1296.00	1651.64
1297.00	2888.22
1298.00	4670.93
1299.00	6202.42
1300.00	6814.86
1301.00	6274.20
1302.00	5071.94
1303.00	3670.74
1304.00	2447.42
1305.00	1567.38
1306.00	1107.07
1307.00	904.23
1308.00	841.03
1309.00	835.57
1310.00	780.18
1311.00	717.76
1312.00	641.31
1313.00	612.44
1314.00	612.44
1315.00	567.97
1316.00	568.75
1317.00	528.18
1318.00	543.00
1319.00	538.32
1320.00	577.33
1321.00	588.25
1322.00	594.50
1323.00	564.85
1324.00	563.29
1325.00	571.09
1326.00	571.09
1327.00	576.55
1328.00	586.69
1329.00	627.26
1330.00	966.64
1331.00	1849.02
1332.00	3544.35
1333.00	5479.97
1334.00	7048.91
1335.00	7365.67
1336.00	6680.67
1337.00	5256.06
1338.00	3792.45
1339.00	2484.09
1340.00	1549.43
1341.00	1029.84
1342.00	783.30
1343.00	702.94
1344.00	649.89
1345.00	633.50
1346.00	608.54
1347.00	621.02
1348.00	610.10
1349.00	635.07
1350.00	667.83
1351.00	689.68
1352.00	688.90
1353.00	681.10
1354.00	683.44
1355.00	746.63
1356.00	793.44
1357.00	924.51
1358.00	1464.40
1359.00	3522.51
1360.00	7861.08
1361.00	14348.26
1362.00	20568.63
1363.00	23959.28
1364.00	22846.75
1365.00	18835.07
1366.00	13488.51
1367.00	8823.04
1368.00	5151.52
1369.00	2998.23
1370.00	1890.37
1371.00	1490.14
1372.00	2171.24
1373.00	5514.30
1374.00	12860.46
1375.00	24378.24
1376.00	35659.62
1377.00	42149.15
1378.00	40824.40
1379.00	34241.26
1380.00	24820.60
1381.00	16022.53
1382.00	8982.98
1383.00	4883.14
1384.00	2715.80
1385.00	1664.90
1386.00	1199.13
1387.00	972.88
1388.00	880.82
1389.00	842.59
1390.00	848.05
1391.00	844.15
1392.00	818.41
1393.00	809.83
1394.00	907.35
1395.00	1118.00
1396.00	1409.78
1397.00	1660.22
1398.00	1822.50
1399.00	1868.53
1400.00	1803.77
1401.00	1712.49
1402.00	2226.63
1403.00	5663.32
1404.00	14954.46
1405.00	30759.32
1406.00	46664.82
1407.00	57145.74
1408.00	59045.47
1409.00	54837.19
1410.00	44976.51
1411.00	31757.95
1412.00	19005.93
1413.00	10111.89
1414.00	5385.57
1415.00	3077.02
1416.00	2431.82
1417.00	3571.66
1418.00	6590.17
1419.00	11249.39
1420.00	15481.08
1421.00	17498.63
1422.00	16339.28
1423.00	13336.37
1424.00	9655.49
1425.00	6391.22
1426.00	3828.34
1427.00	2274.22
1428.00	1455.81
1429.00	1081.33
1430.00	936.21
1431.00	865.22
1432.00	814.51
1433.00	773.94
1434.00	757.55
1435.00	748.97
1436.00	710.74
1437.00	663.15
1438.00	624.92
1439.00	603.08
1440.00	585.13
1441.00	571.87
1442.00	604.64
1443.00	622.58
1444.00	625.70
1445.00	606.98
1446.00	621.02
1447.00	648.33
1448.00	641.31
1449.00	661.59
1450.00	718.54
1451.00	1011.89
1452.00	1910.66
1453.00	3663.72
1454.00	6272.64
1455.00	8799.63
1456.00	10228.92
1457.00	9934.79
1458.00	8518.77
1459.00	6442.71
1460.00	4455.60
1461.00	2713.46
1462.00	1674.26
1463.00	1138.28
1464.00	858.20
1465.00	731.03
1466.00	617.12
1467.00	599.96
1468.00	574.99
1469.00	612.44
1470.00	619.46
1471.00	617.90
1472.00	609.32
1473.00	599.18
1474.00	611.66
1475.00	628.82
1476.00	645.21
1477.00	653.79
1478.00	666.27
1479.00	663.93
1480.00	655.35
1481.00	711.52
1482.00	811.39
1483.00	1284.95
1484.00	3167.52
1485.00	7805.69
1486.00	15895.36
1487.00	25694.40
1488.00	33338.59
1489.00	35416.21
1490.00	31893.70
1491.00	25152.18
1492.00	17571.18
1493.00	10824.98
1494.00	5902.05
1495.00	3187.81
1496.00	1872.43
1497.00	1181.97
1498.00	883.94
1499.00	720.88
1500.00	715.42
1501.00	676.41
1502.00	653.01
1503.00	612.44
1504.00	622.58
1505.00	630.38
1506.00	635.07
1507.00	627.26
1508.00	688.12
1509.00	962.74
1510.00	1743.70
1511.00	3288.45
1512.00	5536.15
1513.00	7672.28
1514.00	8815.24
1515.00	8452.45
1516.00	7124.59
1517.00	5370.75
1518.00	3747.20
1519.00	2395.93
1520.00	1551.78
1521.00	1068.84
1522.00	877.70
1523.00	763.79
1524.00	741.95
1525.00	726.35
1526.00	732.59
1527.00	806.70
1528.00	1004.87
1529.00	2061.23
1530.00	4621.00
1531.00	9359.02
1532.00	15596.55
1533.00	21133.48
1534.00	23612.88
1535.00	22160.97
1536.00	18182.06
1537.00	13163.95
1538.00	8521.11
1539.00	4911.22
1540.00	2797.72
1541.00	1719.51
1542.00	1215.52
1543.00	965.86
1544.00	834.79
1545.00	747.41
1546.00	714.64
1547.00	690.46
1548.00	674.07
1549.00	636.63
1550.00	643.65
1551.00	656.91
1552.00	653.01
1553.00	700.60
1554.00	710.74
1555.00	751.31
1556.00	754.43
1557.00	795.00
1558.00	825.43
1559.00	872.24
1560.00	967.42
1561.00	1719.51
1562.00	4668.59
1563.00	11108.18
1564.00	21937.06
1565.00	33658.46
1566.00	42123.40
1567.00	43555.81
1568.00	38944.95
1569.00	30758.54
1570.00	21629.67
1571.00	13452.62
1572.00	7676.18
1573.00	4443.12
1574.00	3911.82
1575.00	7758.88
1576.00	17435.43
1577.00	32970.35
1578.00	47592.45
1579.00	56970.20
1580.00	58298.06
1581.00	54401.85
1582.00	45462.57
1583.00	33082.69
1584.00	20373.58
1585.00	11020.02
1586.00	5864.60
1587.00	3275.19
1588.00	1966.05
1589.00	1300.56
1590.00	1041.54
1591.00	919.05
1592.00	831.67
1593.00	745.07
1594.00	719.32
1595.00	680.32
1596.00	710.74
1597.00	683.44
1598.00	684.22
1599.00	634.29
1600.00	603.08
1601.00	585.13
1602.00	574.99
1603.00	615.56
1604.00	621.02
1605.00	578.89
1606.00	592.16
1607.00	585.13
1608.00	620.24
1609.00	589.03
1610.00	592.16
1611.00	593.72
1612.00	564.85
1613.00	552.37
1614.00	551.59
1615.00	557.05
1616.00	584.35
1617.00	578.11
1618.00	594.50
1619.00	575.77
1620.00	596.06
1621.00	576.55
1622.00	602.30
1623.00	583.57
1624.00	635.07
1625.00	612.44
1626.00	599.96
1627.00	565.63
1628.00	571.87
1629.00	571.87
1630.00	578.89
1631.00	574.21
1632.00	572.65
1633.00	563.29
1634.00	531.30
1635.00	560.95
1636.00	578.11
1637.00	619.46
1638.00	586.69
1639.00	583.57
1640.00	595.28
1641.00	626.48
1642.00	638.97
1643.00	684.22
1644.00	780.96
1645.00	1338.79
1646.00	3454.63
1647.00	8117.76
1648.00	16119.27
1649.00	25379.21
1650.00	32821.33
1651.00	34802.99
1652.00	32038.03
1653.00	26071.23
1654.00	19135.44
1655.00	12411.08
1656.00	7096.50
1657.00	3956.29
1658.00	2242.23
1659.00	1405.88
1660.00	999.41
1661.00	830.89
1662.00	797.34
1663.00	863.66
1664.00	1484.68
1665.00	2890.56
1666.00	5364.51
1667.00	8406.42
1668.00	11059.03
1669.00	12217.60
1670.00	11538.06
1671.00	9763.93
1672.00	7398.43
1673.00	5163.22
1674.00	3183.13
1675.00	1948.89
1676.00	1204.60
1677.00	848.05
1678.00	659.25
1679.00	559.39
1680.00	538.32
1681.00	535.20
1682.00	524.28
1683.00	494.63
1684.00	492.29
1685.00	500.09
1686.00	502.43
1687.00	456.40
1688.00	455.62
1689.00	463.43
1690.00	489.95
1691.00	528.18
1692.00	535.98
1693.00	569.53
1694.00	556.27
1695.00	540.66
1696.00	528.18
1697.00	513.36
1698.00	514.14
1699.00	507.90
1700.00	515.70
1701.00	539.88
1702.00	546.12
1703.00	553.93
1704.00	564.85
1705.00	571.87
1706.00	565.63
1707.00	568.75
1708.00	609.32
1709.00	869.90
1710.00	1918.46
1711.00	4102.18
1712.00	7722.99
1713.00	12152.06
1714.00	15797.84
1715.00	17237.27
1716.00	16127.85
1717.00	13508.79
1718.00	10144.66
1719.00	6866.35
1720.00	4199.70
1721.00	2512.17
1722.00	1543.19
1723.00	1032.96
1724.00	800.46
1725.00	693.58
1726.00	592.16
1727.00	539.10
1728.00	522.72
1729.00	526.62
1730.00	541.44
1731.00	493.85
1732.00	483.71
1733.00	469.67
1734.00	492.29
1735.00	527.40
1736.00	538.32
1737.00	541.44
1738.00	522.72
1739.00	508.68
1740.00	504.78
1741.00	500.09
1742.00	490.73
1743.00	478.25
1744.00	510.24
1745.00	536.76
1746.00	556.27
1747.00	525.06
1748.00	506.34
1749.00	514.92
1750.00	547.69
1751.00	593.72
1752.00	617.90
1753.00	606.98
1754.00	607.76
1755.00	587.47
1756.00	583.57
1757.00	578.11
1758.00	573.43
1759.00	578.11
1760.00	578.89
1761.00	596.84
1762.00	631.16
1763.00	675.63
1764.00	812.95
1765.00	1514.33
1766.00	3739.40
1767.00	8102.15
1768.00	15054.33
1769.00	22737.52
1770.00	28771.43
1771.00	30385.61
1772.00	27929.61
1773.00	22729.72
1774.00	16669.30
1775.00	10956.83
1776.00	6592.51
1777.00	3791.67
1778.00	2246.13
1779.00	1397.30
1780.00	1043.10
1781.00	826.21
1782.00	731.03
1783.00	663.93
1784.00	621.80
1785.00	551.59
1786.00	534.42
1787.00	558.61
1788.00	615.56
1789.00	617.90
1790.00	613.22
1791.00	608.54
1792.00	787.98
1793.00	1583.76
1794.00	3556.83
1795.00	6838.27
1796.00	11465.50
1797.00	15910.18
1798.00	18669.67
1799.00	18480.09
1800.00	16166.08
1801.00	12677.90
1802.00	9047.73
1803.00	5792.83
1804.00	3471.01
1805.00	2058.89
1806.00	1270.91
1807.00	923.73
1808.00	736.49
1809.00	645.99
1810.00	587.47
1811.00	540.66
1812.00	560.95
1813.00	539.88
1814.00	527.40
1815.00	512.58
1816.00	504.00
1817.00	511.80
1818.00	475.91
1819.00	480.59
1820.00	511.80
1821.00	568.75
1822.00	628.82
1823.00	677.98
1824.00	716.20
1825.00	699.04
1826.00	653.01
1827.00	598.40
1828.00	565.63
1829.00	535.20
1830.00	514.14
1831.00	482.15
1832.00	496.97
1833.00	479.81
1834.00	503.22
1835.00	503.22
1836.00	529.74
1837.00	500.09
1838.00	498.53
1839.00	489.17
1840.00	490.73
1841.00	472.01
1842.00	475.91
1843.00	494.63
1844.00	508.68
1845.00	479.03
1846.00	441.58
1847.00	409.59
1848.00	413.49
1849.00	427.54
1850.00	427.54
1851.00	433.78
1852.00	445.48
1853.00	461.87
1854.00	458.74
1855.00	477.47
1856.00	486.83
1857.00	484.49
1858.00	465.77
1859.00	455.62
1860.00	456.40
1861.00	464.21
1862.00	470.45
1863.00	477.47
1864.00	465.77
1865.00	482.93
1866.00	472.01
1867.00	471.23
1868.00	455.62
1869.00	457.18
1870.00	449.38
1871.00	438.46
1872.00	440.80
1873.00	445.48
1874.00	456.40
1875.00	448.60
1876.00	454.06
1877.00	442.36
1878.00	449.38
1879.00	431.44
1880.00	423.64
1881.00	427.54
1882.00	457.18
1883.00	461.09
1884.00	451.72
1885.00	427.54
1886.00	434.56
1887.00	443.92
1888.00	480.59
1889.00	482.15
1890.00	457.96
1891.00	425.98
1892.00	392.43
1893.00	432.22
1894.00	433.00
1895.00	453.28
1896.00	435.34
1897.00	443.92
1898.00	465.77
1899.00	463.43
1900.00	448.60
1901.00	420.52
1902.00	432.22
1903.00	457.96
1904.00	489.17
1905.00	481.37
1906.00	487.61
1907.00	514.92
1908.00	590.60
1909.00	644.43
1910.00	654.57
1911.00	605.42
1912.00	582.01
1913.00	545.34
1914.00	532.86
1915.00	512.58
1916.00	542.22
1917.00	526.62
1918.00	506.34
1919.00	445.48
1920.00	451.72
1921.00	468.89
1922.00	479.03
1923.00	493.07
1924.00	486.83
1925.00	514.14
1926.00	506.34
1927.00	490.73
1928.00	475.13
1929.00	456.40
1930.00	472.79
1931.00	438.46
1932.00	432.22
1933.00	427.54
1934.00	468.89
1935.00	461.09
1936.00	429.10
1937.00	427.54
1938.00	436.12
1939.00	459.53
1940.00	456.40
1941.00	477.47
1942.00	489.17
1943.00	483.71
1944.00	508.68
1945.00	524.28
1946.00	613.22
1947.00	943.24
1948.00	2044.07
1949.00	4060.05
1950.00	7124.59
1951.00	10632.27
1952.00	13467.44
1953.00	14569.83
1954.00	13753.77
1955.00	11781.48
1956.00	9288.03
1957.00	6832.02
1958.00	4701.36
1959.00	3148.80
1960.00	2057.33
1961.00	1377.02
1962.00	973.66
1963.00	764.58
1964.00	653.01
1965.00	617.90
1966.00	571.09
1967.00	554.71
1968.00	524.28
1969.00	504.00
1970.00	500.87
1971.00	493.07
1972.00	501.65
1973.00	506.34
1974.00	533.64
1975.00	596.84
1976.00	711.52
1977.00	891.74
1978.00	1107.85
1979.00	1250.63
1980.00	1291.20
1981.00	1219.42
1982.00	1110.97
1983.00	985.37
1984.00	871.46
1985.00	751.31
1986.00	650.67
1987.00	575.77
1988.00	501.65
1989.00	483.71
1990.00	470.45
1991.00	493.07
1992.00	489.17
1993.00	480.59
1994.00	471.23
1995.00	453.28
1996.00	428.32
1997.00	445.48
1998.00	481.37
1999.00	496.19
2000.00	503.22
2001.00	475.91
2002.00	534.42
2003.00	531.30
2004.00	557.05
2005.00	533.64
2006.00	535.98
2007.00	544.56
2008.00	506.34
2009.00	493.07
2010.00	484.49
2011.00	500.09
2012.00	521.94
2013.00	526.62
2014.00	533.64
2015.00	534.42
2016.00	528.18
2017.00	539.10
2018.00	550.03
2019.00	613.22
2020.00	724.79
2021.00	880.04
2022.00	1092.25
2023.00	1334.11
2024.00	1846.68
2025.00	3421.86
2026.00	6697.05
2027.00	11948.43
2028.00	18647.83
2029.00	25123.31
2030.00	29437.70
2031.00	30119.57
2032.00	28052.88
2033.00	24052.91
2034.00	19133.88
2035.00	13973.78
2036.00	9540.02
2037.00	6310.86
2038.00	3997.64
2039.00	2499.69
2040.00	1621.21
2041.00	1154.66
2042.00	931.53
2043.00	780.96
2044.00	729.47
2045.00	691.24
2046.00	663.93
2047.00	610.88
>>>>>End Processed Spectral Data<<<<<
