SpectraSuite Data File
++++++++++++++++++++++++++++++++++++
Date: Thu Nov 16 13:55:13 EST 2017
User: cheriyan
Dark Spectrum Present: No
Reference Spectrum Present: No
Number of Sampled Component Spectra: 1
Spectrometers: USB2+H05261
Integration Time (usec): 100000 (USB2+H05261)
Spectra Averaged: 1 (USB2+H05261)
Boxcar Smoothing: 1 (USB2+H05261)
Correct for Electrical Dark: No (USB2+H05261)
Strobe/Lamp Enabled: No (USB2+H05261)
Correct for Detector Non-linearity: No (USB2+H05261)
Correct for Stray Light: No (USB2+H05261)
Number of Pixels in Processed Spectrum: 2048
>>>>>Begin Processed Spectral Data<<<<<
0.00	280.86
1.00	280.86
2.00	267.60
3.00	276.18
4.00	259.02
5.00	290.23
6.00	300.37
7.00	315.97
8.00	294.13
9.00	262.14
10.00	262.14
11.00	252.78
12.00	243.42
13.00	233.27
14.00	236.39
15.00	238.73
16.00	248.88
17.00	259.02
18.00	284.77
19.00	269.16
20.00	264.48
21.00	285.55
22.00	299.59
23.00	296.47
24.00	281.64
25.00	308.95
26.00	333.92
27.00	360.44
28.00	372.93
29.00	397.11
30.00	386.97
31.00	408.81
32.00	427.54
33.00	429.10
34.00	415.06
35.00	397.89
36.00	424.42
37.00	407.25
38.00	386.19
39.00	383.85
40.00	386.19
41.00	400.23
42.00	408.03
43.00	416.62
44.00	425.98
45.00	418.18
46.00	444.70
47.00	452.50
48.00	437.68
49.00	414.27
50.00	416.62
51.00	425.20
52.00	448.60
53.00	433.00
54.00	443.14
55.00	419.74
56.00	429.10
57.00	416.62
58.00	400.23
59.00	395.55
60.00	375.27
61.00	377.61
62.00	365.90
63.00	394.77
64.00	400.23
65.00	431.44
66.00	449.38
67.00	458.75
68.00	438.46
69.00	408.03
70.00	415.84
71.00	430.66
72.00	421.30
73.00	419.74
74.00	388.53
75.00	383.85
76.00	360.44
77.00	368.24
78.00	392.43
79.00	415.06
80.00	405.69
81.00	385.41
82.00	372.93
83.00	384.63
84.00	393.99
85.00	405.69
86.00	390.87
87.00	360.44
88.00	369.02
89.00	380.73
90.00	414.27
91.00	415.06
92.00	408.03
93.00	393.21
94.00	365.12
95.00	378.39
96.00	433.00
97.00	461.87
98.00	459.53
99.00	411.15
100.00	392.43
101.00	384.63
102.00	366.68
103.00	390.09
104.00	397.89
105.00	444.70
106.00	412.71
107.00	415.84
108.00	387.75
109.00	396.33
110.00	386.97
111.00	382.29
112.00	385.41
113.00	380.73
114.00	386.19
115.00	383.07
116.00	396.33
117.00	384.63
118.00	369.80
119.00	358.10
120.00	384.63
121.00	386.97
122.00	412.71
123.00	418.18
124.00	460.31
125.00	461.87
126.00	443.92
127.00	422.08
128.00	404.13
129.00	416.62
130.00	413.49
131.00	434.56
132.00	425.98
133.00	435.34
134.00	427.54
135.00	426.76
136.00	417.40
137.00	415.84
138.00	425.98
139.00	423.64
140.00	425.20
141.00	405.69
142.00	399.45
143.00	408.03
144.00	425.98
145.00	450.94
146.00	468.89
147.00	492.29
148.00	502.43
149.00	497.75
150.00	472.79
151.00	448.60
152.00	417.40
153.00	397.89
154.00	413.49
155.00	435.34
156.00	483.71
157.00	447.82
158.00	448.60
159.00	419.74
160.00	450.16
161.00	422.08
162.00	415.06
163.00	393.99
164.00	411.93
165.00	402.57
166.00	397.89
167.00	397.11
168.00	401.01
169.00	418.96
170.00	413.49
171.00	424.42
172.00	407.25
173.00	405.69
174.00	387.75
175.00	401.01
176.00	387.75
177.00	398.67
178.00	414.27
179.00	413.49
180.00	421.30
181.00	405.69
182.00	422.86
183.00	412.71
184.00	425.20
185.00	408.81
186.00	410.37
187.00	380.73
188.00	392.43
189.00	401.79
190.00	443.14
191.00	443.14
192.00	454.84
193.00	456.40
194.00	506.34
195.00	524.28
196.00	545.34
197.00	514.14
198.00	496.19
199.00	498.53
200.00	485.27
201.00	488.39
202.00	444.70
203.00	433.00
204.00	426.76
205.00	415.06
206.00	406.47
207.00	386.97
208.00	389.31
209.00	420.52
210.00	438.46
211.00	453.28
212.00	447.04
213.00	445.48
214.00	427.54
215.00	415.06
216.00	414.27
217.00	427.54
218.00	433.00
219.00	422.86
220.00	412.71
221.00	415.84
222.00	410.37
223.00	428.32
224.00	422.08
225.00	409.59
226.00	394.77
227.00	390.87
228.00	404.13
229.00	379.17
230.00	366.68
231.00	347.96
232.00	365.90
233.00	377.61
234.00	386.19
235.00	374.49
236.00	362.00
237.00	370.58
238.00	380.73
239.00	389.31
240.00	408.03
241.00	443.14
242.00	463.43
243.00	457.96
244.00	425.20
245.00	397.89
246.00	397.11
247.00	415.06
248.00	430.66
249.00	418.96
250.00	405.69
251.00	409.59
252.00	434.56
253.00	431.44
254.00	431.44
255.00	425.20
256.00	453.28
257.00	479.03
258.00	496.19
259.00	499.31
260.00	482.93
261.00	436.90
262.00	403.35
263.00	413.49
264.00	429.88
265.00	483.71
266.00	486.83
267.00	545.34
268.00	543.00
269.00	549.25
270.00	541.44
271.00	552.37
272.00	608.54
273.00	638.19
274.00	645.21
275.00	595.28
276.00	566.41
277.00	584.35
278.00	592.16
279.00	584.35
280.00	546.91
281.00	494.63
282.00	456.40
283.00	411.93
284.00	422.08
285.00	406.47
286.00	403.35
287.00	415.06
288.00	413.49
289.00	410.37
290.00	379.95
291.00	418.18
292.00	445.48
293.00	468.11
294.00	431.44
295.00	421.30
296.00	404.91
297.00	409.59
298.00	402.57
299.00	415.06
300.00	429.88
301.00	434.56
302.00	440.80
303.00	447.04
304.00	448.60
305.00	465.77
306.00	510.24
307.00	583.57
308.00	632.72
309.00	630.38
310.00	617.12
311.00	574.99
312.00	557.05
313.00	504.00
314.00	472.79
315.00	426.76
316.00	411.93
317.00	399.45
318.00	418.18
319.00	419.74
320.00	450.16
321.00	440.02
322.00	448.60
323.00	413.49
324.00	418.18
325.00	428.32
326.00	439.24
327.00	443.92
328.00	431.44
329.00	423.64
330.00	437.68
331.00	459.53
332.00	478.25
333.00	461.87
334.00	422.86
335.00	419.74
336.00	443.92
337.00	470.45
338.00	475.13
339.00	433.78
340.00	407.25
341.00	418.18
342.00	415.06
343.00	423.64
344.00	429.10
345.00	485.27
346.00	553.15
347.00	630.38
348.00	695.92
349.00	708.40
350.00	674.85
351.00	609.32
352.00	557.05
353.00	524.28
354.00	532.08
355.00	541.44
356.00	533.64
357.00	496.97
358.00	464.99
359.00	435.34
360.00	448.60
361.00	459.53
362.00	456.40
363.00	440.02
364.00	408.03
365.00	422.08
366.00	417.40
367.00	429.88
368.00	422.08
369.00	415.84
370.00	398.67
371.00	387.75
372.00	384.63
373.00	408.03
374.00	450.16
375.00	462.65
376.00	471.23
377.00	427.54
378.00	387.75
379.00	408.81
380.00	394.77
381.00	423.64
382.00	395.55
383.00	411.93
384.00	411.93
385.00	403.35
386.00	397.11
387.00	395.55
388.00	390.09
389.00	421.30
390.00	444.70
391.00	464.99
392.00	434.56
393.00	423.64
394.00	439.24
395.00	475.13
396.00	457.18
397.00	435.34
398.00	421.30
399.00	442.36
400.00	434.56
401.00	426.76
402.00	405.69
403.00	408.03
404.00	443.14
405.00	450.16
406.00	475.91
407.00	415.06
408.00	405.69
409.00	424.42
410.00	450.94
411.00	447.82
412.00	405.69
413.00	379.17
414.00	386.19
415.00	365.90
416.00	398.67
417.00	390.87
418.00	404.91
419.00	393.21
420.00	387.75
421.00	402.57
422.00	406.47
423.00	428.32
424.00	401.01
425.00	389.31
426.00	390.87
427.00	409.59
428.00	411.93
429.00	433.00
430.00	420.52
431.00	413.49
432.00	386.97
433.00	402.57
434.00	427.54
435.00	434.56
436.00	432.22
437.00	439.24
438.00	409.59
439.00	415.06
440.00	410.37
441.00	468.11
442.00	491.51
443.00	467.33
444.00	442.36
445.00	425.98
446.00	422.86
447.00	418.96
448.00	395.55
449.00	409.59
450.00	415.06
451.00	446.26
452.00	453.28
453.00	454.06
454.00	430.66
455.00	453.28
456.00	420.52
457.00	427.54
458.00	394.77
459.00	426.76
460.00	431.44
461.00	427.54
462.00	419.74
463.00	411.93
464.00	408.03
465.00	410.37
466.00	449.38
467.00	453.28
468.00	457.18
469.00	414.27
470.00	425.20
471.00	451.72
472.00	466.55
473.00	481.37
474.00	439.24
475.00	429.88
476.00	403.35
477.00	394.77
478.00	398.67
479.00	404.13
480.00	415.84
481.00	411.93
482.00	428.32
483.00	437.68
484.00	437.68
485.00	425.98
486.00	396.33
487.00	384.63
488.00	379.17
489.00	411.15
490.00	408.81
491.00	402.57
492.00	408.81
493.00	431.44
494.00	459.53
495.00	459.53
496.00	437.68
497.00	442.36
498.00	428.32
499.00	419.74
500.00	402.57
501.00	404.91
502.00	440.80
503.00	425.20
504.00	415.84
505.00	372.93
506.00	410.37
507.00	403.35
508.00	432.22
509.00	414.27
510.00	418.18
511.00	393.21
512.00	393.99
513.00	422.86
514.00	444.70
515.00	418.18
516.00	382.29
517.00	396.33
518.00	443.92
519.00	446.26
520.00	440.80
521.00	410.37
522.00	420.52
523.00	412.71
524.00	443.14
525.00	473.57
526.00	473.57
527.00	453.28
528.00	429.10
529.00	454.06
530.00	454.84
531.00	475.13
532.00	445.48
533.00	446.26
534.00	411.93
535.00	411.93
536.00	412.71
537.00	401.01
538.00	418.18
539.00	413.49
540.00	440.80
541.00	414.27
542.00	425.98
543.00	430.66
544.00	439.24
545.00	418.18
546.00	399.45
547.00	433.00
548.00	453.28
549.00	500.87
550.00	474.35
551.00	468.89
552.00	433.00
553.00	436.12
554.00	427.54
555.00	415.06
556.00	400.23
557.00	418.96
558.00	428.32
559.00	450.16
560.00	440.80
561.00	452.50
562.00	453.28
563.00	440.80
564.00	428.32
565.00	417.40
566.00	422.08
567.00	447.82
568.00	446.26
569.00	422.86
570.00	395.55
571.00	417.40
572.00	428.32
573.00	428.32
574.00	426.76
575.00	440.80
576.00	443.14
577.00	430.66
578.00	430.66
579.00	443.14
580.00	425.98
581.00	433.78
582.00	397.11
583.00	410.37
584.00	424.42
585.00	472.01
586.00	467.33
587.00	447.82
588.00	455.62
589.00	463.43
590.00	457.18
591.00	423.64
592.00	433.00
593.00	430.66
594.00	418.18
595.00	403.35
596.00	414.27
597.00	438.46
598.00	455.62
599.00	454.84
600.00	451.72
601.00	428.32
602.00	413.49
603.00	391.65
604.00	405.69
605.00	396.33
606.00	407.25
607.00	401.79
608.00	418.96
609.00	420.52
610.00	409.59
611.00	414.27
612.00	443.92
613.00	448.60
614.00	433.78
615.00	406.47
616.00	419.74
617.00	442.36
618.00	440.02
619.00	455.62
620.00	455.62
621.00	470.45
622.00	442.36
623.00	433.78
624.00	413.49
625.00	418.18
626.00	415.84
627.00	420.52
628.00	443.92
629.00	456.40
630.00	449.38
631.00	433.78
632.00	426.76
633.00	454.06
634.00	439.24
635.00	424.42
636.00	425.98
637.00	428.32
638.00	445.48
639.00	450.94
640.00	464.99
641.00	442.36
642.00	405.69
643.00	423.64
644.00	447.04
645.00	464.21
646.00	443.14
647.00	413.49
648.00	408.03
649.00	386.19
650.00	396.33
651.00	403.35
652.00	419.74
653.00	412.71
654.00	458.75
655.00	475.91
656.00	504.00
657.00	451.72
658.00	440.02
659.00	423.64
660.00	429.10
661.00	425.98
662.00	437.68
663.00	422.08
664.00	398.67
665.00	409.59
666.00	415.84
667.00	437.68
668.00	429.88
669.00	443.14
670.00	442.36
671.00	468.11
672.00	446.26
673.00	447.82
674.00	397.11
675.00	414.27
676.00	406.47
677.00	420.52
678.00	440.02
679.00	451.72
680.00	434.56
681.00	443.14
682.00	424.42
683.00	439.24
684.00	441.58
685.00	440.02
686.00	442.36
687.00	421.30
688.00	440.80
689.00	457.96
690.00	468.11
691.00	464.99
692.00	435.34
693.00	436.12
694.00	440.02
695.00	425.98
696.00	394.77
697.00	405.69
698.00	426.76
699.00	424.42
700.00	383.07
701.00	389.31
702.00	401.79
703.00	454.06
704.00	448.60
705.00	450.16
706.00	427.54
707.00	427.54
708.00	440.80
709.00	439.24
710.00	429.88
711.00	421.30
712.00	417.40
713.00	433.78
714.00	446.26
715.00	455.62
716.00	444.70
717.00	432.22
718.00	494.63
719.00	511.02
720.00	512.58
721.00	445.48
722.00	443.14
723.00	429.10
724.00	435.34
725.00	423.64
726.00	418.96
727.00	411.93
728.00	425.98
729.00	439.24
730.00	469.67
731.00	455.62
732.00	457.18
733.00	444.70
734.00	492.29
735.00	511.02
736.00	521.94
737.00	501.65
738.00	507.90
739.00	474.35
740.00	459.53
741.00	432.22
742.00	438.46
743.00	448.60
744.00	461.87
745.00	472.79
746.00	467.33
747.00	464.99
748.00	447.82
749.00	447.82
750.00	457.96
751.00	482.15
752.00	471.23
753.00	441.58
754.00	438.46
755.00	412.71
756.00	418.96
757.00	408.81
758.00	463.43
759.00	494.63
760.00	502.43
761.00	494.63
762.00	493.07
763.00	487.61
764.00	475.91
765.00	448.60
766.00	427.54
767.00	436.12
768.00	429.10
769.00	441.58
770.00	422.08
771.00	436.90
772.00	453.28
773.00	468.11
774.00	447.82
775.00	429.10
776.00	416.62
777.00	444.70
778.00	450.16
779.00	500.87
780.00	516.48
781.00	570.31
782.00	550.81
783.00	637.41
784.00	603.08
785.00	570.31
786.00	451.72
787.00	424.42
788.00	433.78
789.00	425.98
790.00	418.96
791.00	405.69
792.00	442.36
793.00	450.94
794.00	449.38
795.00	432.22
796.00	436.12
797.00	465.77
798.00	439.24
799.00	450.94
800.00	454.06
801.00	508.68
802.00	513.36
803.00	484.49
804.00	456.40
805.00	447.04
806.00	437.68
807.00	422.86
808.00	415.06
809.00	443.14
810.00	443.14
811.00	457.96
812.00	414.27
813.00	442.36
814.00	401.01
815.00	433.78
816.00	402.57
817.00	460.31
818.00	450.94
819.00	467.33
820.00	443.92
821.00	462.65
822.00	480.59
823.00	472.79
824.00	480.59
825.00	479.81
826.00	495.41
827.00	466.55
828.00	453.28
829.00	414.27
830.00	427.54
831.00	429.10
832.00	482.93
833.00	500.87
834.00	488.39
835.00	490.73
836.00	487.61
837.00	506.34
838.00	489.95
839.00	486.05
840.00	478.25
841.00	459.53
842.00	454.84
843.00	457.96
844.00	500.09
845.00	492.29
846.00	492.29
847.00	431.44
848.00	436.90
849.00	425.98
850.00	430.66
851.00	414.27
852.00	390.09
853.00	398.67
854.00	404.13
855.00	432.22
856.00	436.90
857.00	429.88
858.00	423.64
859.00	433.78
860.00	474.35
861.00	483.71
862.00	487.61
863.00	477.47
864.00	456.40
865.00	436.90
866.00	393.21
867.00	404.13
868.00	405.69
869.00	423.64
870.00	404.91
871.00	415.84
872.00	401.79
873.00	398.67
874.00	419.74
875.00	436.90
876.00	432.22
877.00	404.13
878.00	417.40
879.00	456.40
880.00	461.09
881.00	445.48
882.00	458.75
883.00	454.06
884.00	456.40
885.00	427.54
886.00	438.46
887.00	452.50
888.00	461.09
889.00	462.65
890.00	470.45
891.00	451.72
892.00	448.60
893.00	432.22
894.00	450.94
895.00	437.68
896.00	440.80
897.00	434.56
898.00	414.27
899.00	400.23
900.00	423.64
901.00	492.29
902.00	526.62
903.00	571.87
904.00	627.26
905.00	724.79
906.00	788.76
907.00	804.36
908.00	769.26
909.00	1035.30
910.00	1071.97
911.00	1128.92
912.00	887.84
913.00	876.92
914.00	832.45
915.00	731.81
916.00	642.87
917.00	550.81
918.00	504.00
919.00	475.13
920.00	501.65
921.00	512.58
922.00	491.51
923.00	432.22
924.00	415.84
925.00	424.42
926.00	433.78
927.00	425.20
928.00	432.22
929.00	462.65
930.00	480.59
931.00	473.57
932.00	467.33
933.00	457.96
934.00	455.62
935.00	425.98
936.00	426.76
937.00	415.84
938.00	440.80
939.00	455.62
940.00	464.99
941.00	472.79
942.00	472.01
943.00	629.60
944.00	1075.87
945.00	1908.32
946.00	2936.59
947.00	3647.33
948.00	3754.22
949.00	3197.17
950.00	2385.01
951.00	1604.05
952.00	1057.14
953.00	728.69
954.00	582.01
955.00	509.46
956.00	506.34
957.00	473.57
958.00	462.65
959.00	451.72
960.00	468.89
961.00	454.84
962.00	443.14
963.00	410.37
964.00	414.27
965.00	416.62
966.00	454.06
967.00	461.09
968.00	450.94
969.00	457.96
970.00	472.01
971.00	472.01
972.00	439.24
973.00	443.92
974.00	454.84
975.00	483.71
976.00	488.39
977.00	475.91
978.00	482.15
979.00	466.55
980.00	454.84
981.00	454.06
982.00	431.44
983.00	449.38
984.00	436.90
985.00	461.09
986.00	447.04
987.00	442.36
988.00	457.18
989.00	460.31
990.00	447.82
991.00	436.12
992.00	449.38
993.00	457.96
994.00	433.78
995.00	413.49
996.00	420.52
997.00	424.42
998.00	450.94
999.00	476.69
1000.00	487.61
1001.00	484.49
1002.00	453.28
1003.00	464.99
1004.00	461.09
1005.00	440.02
1006.00	438.46
1007.00	433.78
1008.00	456.40
1009.00	454.84
1010.00	468.89
1011.00	474.35
1012.00	472.79
1013.00	452.50
1014.00	461.09
1015.00	464.21
1016.00	479.81
1017.00	464.21
1018.00	436.90
1019.00	433.00
1020.00	429.10
1021.00	415.84
1022.00	429.88
1023.00	431.44
1024.00	473.57
1025.00	445.48
1026.00	448.60
1027.00	433.78
1028.00	440.02
1029.00	445.48
1030.00	461.87
1031.00	439.24
1032.00	412.71
1033.00	392.43
1034.00	422.08
1035.00	439.24
1036.00	413.49
1037.00	413.49
1038.00	411.15
1039.00	446.26
1040.00	472.79
1041.00	482.15
1042.00	514.14
1043.00	497.75
1044.00	525.84
1045.00	532.08
1046.00	537.54
1047.00	507.12
1048.00	486.05
1049.00	470.45
1050.00	454.06
1051.00	443.92
1052.00	443.14
1053.00	444.70
1054.00	427.54
1055.00	425.20
1056.00	424.42
1057.00	422.08
1058.00	412.71
1059.00	393.99
1060.00	401.79
1061.00	425.20
1062.00	452.50
1063.00	456.40
1064.00	440.02
1065.00	433.78
1066.00	425.20
1067.00	421.30
1068.00	433.78
1069.00	426.76
1070.00	437.68
1071.00	420.52
1072.00	418.96
1073.00	401.79
1074.00	429.10
1075.00	427.54
1076.00	461.09
1077.00	428.32
1078.00	461.09
1079.00	458.74
1080.00	496.19
1081.00	470.45
1082.00	466.55
1083.00	450.16
1084.00	472.01
1085.00	475.91
1086.00	494.63
1087.00	468.11
1088.00	430.66
1089.00	408.81
1090.00	429.88
1091.00	448.60
1092.00	464.99
1093.00	445.48
1094.00	443.92
1095.00	443.92
1096.00	441.58
1097.00	458.75
1098.00	473.57
1099.00	528.18
1100.00	574.21
1101.00	585.91
1102.00	574.21
1103.00	541.44
1104.00	532.86
1105.00	532.86
1106.00	527.40
1107.00	490.73
1108.00	485.27
1109.00	464.21
1110.00	477.47
1111.00	446.26
1112.00	450.16
1113.00	430.66
1114.00	433.00
1115.00	433.00
1116.00	457.18
1117.00	478.25
1118.00	462.65
1119.00	480.59
1120.00	503.22
1121.00	539.10
1122.00	551.59
1123.00	529.74
1124.00	515.70
1125.00	473.57
1126.00	475.91
1127.00	480.59
1128.00	467.33
1129.00	436.12
1130.00	449.38
1131.00	477.47
1132.00	518.82
1133.00	484.49
1134.00	496.97
1135.00	496.97
1136.00	521.94
1137.00	534.42
1138.00	532.86
1139.00	549.25
1140.00	533.64
1141.00	537.54
1142.00	517.26
1143.00	489.17
1144.00	473.57
1145.00	451.72
1146.00	479.03
1147.00	470.45
1148.00	486.05
1149.00	443.92
1150.00	440.02
1151.00	434.56
1152.00	484.49
1153.00	497.75
1154.00	568.75
1155.00	612.44
1156.00	717.76
1157.00	738.05
1158.00	752.09
1159.00	707.62
1160.00	685.78
1161.00	638.97
1162.00	595.28
1163.00	628.82
1164.00	797.34
1165.00	1084.45
1166.00	1394.18
1167.00	1601.71
1168.00	1647.74
1169.00	1485.46
1170.00	1254.53
1171.00	997.85
1172.00	809.05
1173.00	661.59
1174.00	599.18
1175.00	571.09
1176.00	559.39
1177.00	562.51
1178.00	561.73
1179.00	571.87
1180.00	557.83
1181.00	571.09
1182.00	599.18
1183.00	616.34
1184.00	623.36
1185.00	624.92
1186.00	642.87
1187.00	635.07
1188.00	621.80
1189.00	688.12
1190.00	749.75
1191.00	857.42
1192.00	876.14
1193.00	933.09
1194.00	908.13
1195.00	871.46
1196.00	837.91
1197.00	833.23
1198.00	880.82
1199.00	1011.11
1200.00	1167.93
1201.00	1371.55
1202.00	1443.33
1203.00	1485.46
1204.00	1394.96
1205.00	1307.58
1206.00	1151.54
1207.00	1085.23
1208.00	1040.76
1209.00	1103.95
1210.00	1157.78
1211.00	1240.48
1212.00	1338.79
1213.00	1457.37
1214.00	1662.56
1215.00	1941.86
1216.00	2459.90
1217.00	5730.41
1218.00	21068.72
1219.00	41862.04
1220.00	59797.57
1221.00	65535.00
1222.00	65535.00
1223.00	65535.00
1224.00	65535.00
1225.00	65382.08
1226.00	56344.50
1227.00	40705.82
1228.00	22039.26
1229.00	10757.88
1230.00	5497.14
1231.00	3171.43
1232.00	2282.02
1233.00	1893.49
1234.00	1708.59
1235.00	1633.69
1236.00	2165.00
1237.00	3858.76
1238.00	7194.03
1239.00	11652.75
1240.00	15412.43
1241.00	16455.53
1242.00	14619.77
1243.00	11194.00
1244.00	7727.67
1245.00	4827.74
1246.00	2800.06
1247.00	1702.35
1248.00	1203.04
1249.00	934.65
1250.00	847.27
1251.00	882.38
1252.00	1034.52
1253.00	1149.98
1254.00	1216.30
1255.00	1201.48
1256.00	1160.91
1257.00	1054.02
1258.00	992.39
1259.00	925.29
1260.00	932.31
1261.00	928.41
1262.00	912.81
1263.00	876.92
1264.00	811.39
1265.00	780.96
1266.00	752.09
1267.00	768.48
1268.00	756.77
1269.00	791.88
1270.00	794.22
1271.00	803.58
1272.00	783.30
1273.00	805.92
1274.00	894.08
1275.00	1239.70
1276.00	2975.60
1277.00	7191.69
1278.00	14601.82
1279.00	22878.74
1280.00	28509.29
1281.00	28571.70
1282.00	24343.91
1283.00	17780.27
1284.00	11690.20
1285.00	6687.69
1286.00	3702.73
1287.00	2124.43
1288.00	1360.63
1289.00	1036.08
1290.00	898.77
1291.00	878.48
1292.00	886.28
1293.00	922.17
1294.00	949.48
1295.00	1110.19
1296.00	1708.59
1297.00	2981.06
1298.00	4693.55
1299.00	6195.40
1300.00	6726.70
1301.00	6246.89
1302.00	5085.98
1303.00	3699.61
1304.00	2481.75
1305.00	1581.42
1306.00	1174.17
1307.00	968.20
1308.00	890.96
1309.00	829.33
1310.00	779.40
1311.00	729.47
1312.00	671.73
1313.00	668.61
1314.00	672.51
1315.00	639.75
1316.00	603.86
1317.00	567.97
1318.00	568.75
1319.00	573.43
1320.00	557.83
1321.00	540.66
1322.00	500.87
1323.00	500.09
1324.00	513.36
1325.00	525.06
1326.00	521.16
1327.00	535.20
1328.00	570.31
1329.00	624.92
1330.00	986.15
1331.00	1891.93
1332.00	3511.58
1333.00	5424.58
1334.00	6886.64
1335.00	7271.26
1336.00	6553.50
1337.00	5190.53
1338.00	3680.10
1339.00	2420.89
1340.00	1501.84
1341.00	1040.76
1342.00	775.50
1343.00	697.48
1344.00	649.89
1345.00	651.45
1346.00	636.63
1347.00	629.60
1348.00	620.24
1349.00	645.99
1350.00	663.15
1351.00	662.37
1352.00	665.49
1353.00	689.68
1354.00	709.18
1355.00	734.15
1356.00	769.26
1357.00	901.11
1358.00	1453.47
1359.00	3455.41
1360.00	7697.24
1361.00	14157.90
1362.00	20558.49
1363.00	23921.84
1364.00	22969.24
1365.00	18856.92
1366.00	13548.58
1367.00	8773.89
1368.00	5087.54
1369.00	2997.45
1370.00	1871.65
1371.00	1457.37
1372.00	2161.87
1373.00	5495.58
1374.00	12829.26
1375.00	24367.32
1376.00	35651.04
1377.00	42172.55
1378.00	40854.83
1379.00	34198.35
1380.00	24765.21
1381.00	15908.62
1382.00	8943.97
1383.00	4869.09
1384.00	2715.02
1385.00	1665.68
1386.00	1148.42
1387.00	941.68
1388.00	858.98
1389.00	838.69
1390.00	848.05
1391.00	830.11
1392.00	803.58
1393.00	792.66
1394.00	868.34
1395.00	1057.92
1396.00	1360.63
1397.00	1666.46
1398.00	1852.14
1399.00	1865.41
1400.00	1766.32
1401.00	1699.23
1402.00	2201.66
1403.00	5682.82
1404.00	14859.28
1405.00	30622.79
1406.00	46428.43
1407.00	56924.95
1408.00	58832.49
1409.00	54491.57
1410.00	44668.34
1411.00	31423.25
1412.00	18821.03
1413.00	9969.12
1414.00	5317.70
1415.00	3032.55
1416.00	2431.82
1417.00	3550.59
1418.00	6604.99
1419.00	11047.33
1420.00	15270.44
1421.00	17284.86
1422.00	16312.75
1423.00	13369.14
1424.00	9706.98
1425.00	6420.87
1426.00	3821.31
1427.00	2266.42
1428.00	1443.33
1429.00	1050.12
1430.00	848.05
1431.00	778.62
1432.00	793.44
1433.00	818.41
1434.00	816.07
1435.00	771.60
1436.00	693.58
1437.00	671.73
1438.00	642.87
1439.00	631.16
1440.00	582.79
1441.00	567.97
1442.00	571.09
1443.00	567.97
1444.00	568.75
1445.00	576.55
1446.00	606.98
1447.00	646.77
1448.00	657.69
1449.00	689.68
1450.00	725.57
1451.00	1020.47
1452.00	1864.63
1453.00	3614.57
1454.00	6242.21
1455.00	8858.15
1456.00	10349.07
1457.00	9979.26
1458.00	8464.94
1459.00	6337.39
1460.00	4393.19
1461.00	2687.72
1462.00	1636.81
1463.00	1075.87
1464.00	841.81
1465.00	734.93
1466.00	695.14
1467.00	653.01
1468.00	618.68
1469.00	603.08
1470.00	626.48
1471.00	616.34
1472.00	640.53
1473.00	631.94
1474.00	660.81
1475.00	653.79
1476.00	680.32
1477.00	690.46
1478.00	704.50
1479.00	697.48
1480.00	727.13
1481.00	760.67
1482.00	812.17
1483.00	1201.48
1484.00	3073.12
1485.00	7622.34
1486.00	15714.36
1487.00	25612.48
1488.00	33370.58
1489.00	35448.19
1490.00	31772.77
1491.00	24897.84
1492.00	17302.02
1493.00	10677.52
1494.00	5888.79
1495.00	3229.94
1496.00	1871.65
1497.00	1220.98
1498.00	940.12
1499.00	794.22
1500.00	738.83
1501.00	699.82
1502.00	686.56
1503.00	654.57
1504.00	615.56
1505.00	610.88
1506.00	640.53
1507.00	674.85
1508.00	718.54
1509.00	953.38
1510.00	1783.49
1511.00	3329.80
1512.00	5568.13
1513.00	7620.78
1514.00	8770.77
1515.00	8462.60
1516.00	7189.35
1517.00	5480.75
1518.00	3801.03
1519.00	2422.45
1520.00	1510.43
1521.00	1093.03
1522.00	880.82
1523.00	770.82
1524.00	685.00
1525.00	661.59
1526.00	700.60
1527.00	784.86
1528.00	1025.93
1529.00	2040.95
1530.00	4613.98
1531.00	9347.32
1532.00	15601.23
1533.00	21133.48
1534.00	23533.31
1535.00	22011.18
1536.00	18040.07
1537.00	13044.59
1538.00	8467.28
1539.00	4868.31
1540.00	2732.97
1541.00	1676.60
1542.00	1178.07
1543.00	951.04
1544.00	828.55
1545.00	741.17
1546.00	738.83
1547.00	717.76
1548.00	716.20
1549.00	715.42
1550.00	718.54
1551.00	711.52
1552.00	698.26
1553.00	685.00
1554.00	729.47
1555.00	759.11
1556.00	794.22
1557.00	770.04
1558.00	808.26
1559.00	880.04
1560.00	1002.53
1561.00	1739.02
1562.00	4628.80
1563.00	11195.56
1564.00	21867.63
1565.00	33700.59
1566.00	42000.91
1567.00	43442.68
1568.00	38822.47
1569.00	30763.22
1570.00	21673.36
1571.00	13457.30
1572.00	7570.07
1573.00	4440.78
1574.00	3911.04
1575.00	7714.41
1576.00	17295.00
1577.00	32761.26
1578.00	47454.36
1579.00	56905.44
1580.00	58294.16
1581.00	54372.99
1582.00	45290.15
1583.00	32921.20
1584.00	20238.61
1585.00	11021.58
1586.00	5774.88
1587.00	3170.65
1588.00	1937.96
1589.00	1354.39
1590.00	1081.33
1591.00	964.30
1592.00	890.96
1593.00	839.47
1594.00	772.38
1595.00	732.59
1596.00	718.54
1597.00	683.44
1598.00	666.27
1599.00	639.75
1600.00	653.79
1601.00	645.21
1602.00	634.29
1603.00	603.08
1604.00	618.68
1605.00	626.48
1606.00	643.65
1607.00	635.85
1608.00	615.56
1609.00	598.40
1610.00	549.25
1611.00	549.25
1612.00	541.44
1613.00	567.97
1614.00	575.77
1615.00	543.78
1616.00	539.88
1617.00	507.90
1618.00	557.05
1619.00	548.47
1620.00	578.89
1621.00	555.49
1622.00	585.91
1623.00	571.09
1624.00	593.72
1625.00	575.77
1626.00	570.31
1627.00	557.05
1628.00	583.57
1629.00	583.57
1630.00	582.01
1631.00	550.03
1632.00	581.23
1633.00	607.76
1634.00	601.52
1635.00	591.38
1636.00	596.84
1637.00	611.66
1638.00	600.74
1639.00	598.40
1640.00	629.60
1641.00	663.93
1642.00	676.41
1643.00	706.06
1644.00	778.62
1645.00	1272.47
1646.00	3411.72
1647.00	8110.74
1648.00	16077.14
1649.00	25482.19
1650.00	32787.78
1651.00	34931.72
1652.00	32030.23
1653.00	25939.38
1654.00	18949.76
1655.00	12107.59
1656.00	7005.22
1657.00	3819.75
1658.00	2187.62
1659.00	1394.96
1660.00	994.73
1661.00	823.87
1662.00	742.73
1663.00	826.99
1664.00	1458.93
1665.00	2950.64
1666.00	5360.61
1667.00	8428.27
1668.00	11031.72
1669.00	12286.25
1670.00	11655.87
1671.00	9836.49
1672.00	7434.32
1673.00	5078.96
1674.00	3133.20
1675.00	1854.48
1676.00	1144.52
1677.00	809.83
1678.00	696.70
1679.00	640.53
1680.00	598.40
1681.00	582.79
1682.00	549.25
1683.00	526.62
1684.00	504.78
1685.00	533.64
1686.00	548.47
1687.00	528.18
1688.00	490.73
1689.00	479.03
1690.00	479.81
1691.00	466.55
1692.00	492.29
1693.00	507.90
1694.00	525.84
1695.00	504.78
1696.00	492.29
1697.00	530.52
1698.00	529.74
1699.00	543.00
1700.00	485.27
1701.00	496.19
1702.00	506.34
1703.00	578.89
1704.00	570.31
1705.00	581.23
1706.00	550.81
1707.00	568.75
1708.00	611.66
1709.00	883.94
1710.00	1877.89
1711.00	4100.62
1712.00	7731.57
1713.00	12172.35
1714.00	15673.79
1715.00	17086.69
1716.00	15999.12
1717.00	13411.27
1718.00	10078.35
1719.00	6839.05
1720.00	4197.36
1721.00	2497.35
1722.00	1553.34
1723.00	1092.25
1724.00	830.89
1725.00	663.93
1726.00	578.89
1727.00	547.69
1728.00	525.06
1729.00	518.04
1730.00	511.02
1731.00	527.40
1732.00	526.62
1733.00	532.08
1734.00	537.54
1735.00	511.02
1736.00	489.17
1737.00	457.18
1738.00	460.31
1739.00	498.53
1740.00	496.19
1741.00	521.16
1742.00	498.53
1743.00	500.87
1744.00	504.78
1745.00	503.22
1746.00	489.17
1747.00	447.82
1748.00	442.36
1749.00	489.95
1750.00	541.44
1751.00	589.82
1752.00	597.62
1753.00	586.69
1754.00	577.33
1755.00	574.21
1756.00	594.50
1757.00	572.65
1758.00	569.53
1759.00	578.89
1760.00	611.66
1761.00	631.16
1762.00	649.89
1763.00	709.18
1764.00	841.81
1765.00	1530.71
1766.00	3753.44
1767.00	8117.76
1768.00	15079.29
1769.00	22762.49
1770.00	28776.89
1771.00	30368.45
1772.00	27910.11
1773.00	22739.08
1774.00	16690.36
1775.00	10909.24
1776.00	6524.63
1777.00	3760.46
1778.00	2265.64
1779.00	1416.80
1780.00	1015.01
1781.00	811.39
1782.00	732.59
1783.00	701.38
1784.00	672.51
1785.00	635.85
1786.00	606.98
1787.00	590.60
1788.00	574.99
1789.00	593.72
1790.00	623.36
1791.00	663.15
1792.00	802.02
1793.00	1547.87
1794.00	3456.97
1795.00	6871.81
1796.00	11470.19
1797.00	15896.14
1798.00	18451.22
1799.00	18322.49
1800.00	15932.03
1801.00	12507.82
1802.00	8862.05
1803.00	5714.81
1804.00	3453.85
1805.00	2066.69
1806.00	1338.01
1807.00	933.87
1808.00	727.13
1809.00	635.07
1810.00	564.85
1811.00	544.56
1812.00	522.72
1813.00	553.15
1814.00	555.49
1815.00	540.66
1816.00	525.84
1817.00	520.38
1818.00	539.88
1819.00	534.42
1820.00	547.69
1821.00	565.63
1822.00	610.10
1823.00	665.49
1824.00	685.00
1825.00	686.56
1826.00	649.89
1827.00	608.54
1828.00	537.54
1829.00	474.35
1830.00	461.09
1831.00	482.15
1832.00	522.72
1833.00	556.27
1834.00	543.78
1835.00	528.96
1836.00	476.69
1837.00	457.96
1838.00	446.26
1839.00	437.68
1840.00	432.22
1841.00	422.86
1842.00	451.72
1843.00	454.84
1844.00	482.15
1845.00	463.43
1846.00	471.23
1847.00	441.58
1848.00	436.12
1849.00	445.48
1850.00	459.53
1851.00	493.85
1852.00	481.37
1853.00	482.15
1854.00	437.68
1855.00	429.88
1856.00	419.74
1857.00	444.70
1858.00	436.12
1859.00	423.64
1860.00	376.05
1861.00	415.06
1862.00	431.44
1863.00	482.15
1864.00	444.70
1865.00	428.32
1866.00	423.64
1867.00	435.34
1868.00	449.38
1869.00	423.64
1870.00	436.90
1871.00	425.20
1872.00	429.10
1873.00	420.52
1874.00	428.32
1875.00	461.09
1876.00	468.89
1877.00	474.35
1878.00	465.77
1879.00	481.37
1880.00	486.05
1881.00	476.69
1882.00	456.40
1883.00	454.06
1884.00	464.21
1885.00	504.00
1886.00	516.48
1887.00	504.78
1888.00	474.35
1889.00	444.70
1890.00	456.40
1891.00	449.38
1892.00	479.03
1893.00	491.51
1894.00	489.95
1895.00	468.89
1896.00	438.46
1897.00	408.03
1898.00	406.47
1899.00	438.46
1900.00	469.67
1901.00	440.02
1902.00	413.49
1903.00	409.59
1904.00	464.21
1905.00	485.27
1906.00	538.32
1907.00	548.47
1908.00	610.88
1909.00	633.50
1910.00	653.01
1911.00	628.82
1912.00	602.30
1913.00	584.35
1914.00	538.32
1915.00	492.29
1916.00	443.92
1917.00	443.92
1918.00	442.36
1919.00	479.81
1920.00	484.49
1921.00	517.26
1922.00	511.80
1923.00	499.31
1924.00	478.25
1925.00	452.50
1926.00	444.70
1927.00	446.26
1928.00	453.28
1929.00	469.67
1930.00	479.81
1931.00	469.67
1932.00	462.65
1933.00	454.06
1934.00	475.13
1935.00	486.83
1936.00	503.22
1937.00	517.26
1938.00	496.19
1939.00	475.13
1940.00	462.65
1941.00	494.63
1942.00	503.22
1943.00	512.58
1944.00	493.85
1945.00	504.00
1946.00	574.99
1947.00	960.40
1948.00	2026.90
1949.00	4026.50
1950.00	7094.16
1951.00	10685.33
1952.00	13493.97
1953.00	14550.33
1954.00	13634.40
1955.00	11722.96
1956.00	9212.35
1957.00	6813.30
1958.00	4681.85
1959.00	3196.39
1960.00	2120.53
1961.00	1447.23
1962.00	1022.81
1963.00	805.92
1964.00	670.95
1965.00	615.56
1966.00	544.56
1967.00	532.86
1968.00	538.32
1969.00	543.00
1970.00	499.31
1971.00	460.31
1972.00	479.81
1973.00	543.78
1974.00	585.91
1975.00	660.03
1976.00	742.73
1977.00	915.15
1978.00	1098.49
1979.00	1266.23
1980.00	1299.00
1981.00	1232.68
1982.00	1092.25
1983.00	947.14
1984.00	798.12
1985.00	692.80
1986.00	625.70
1987.00	593.72
1988.00	559.39
1989.00	544.56
1990.00	519.60
1991.00	480.59
1992.00	457.96
1993.00	462.65
1994.00	486.83
1995.00	471.23
1996.00	456.40
1997.00	447.04
1998.00	501.65
1999.00	507.90
2000.00	507.90
2001.00	481.37
2002.00	503.22
2003.00	517.26
2004.00	518.04
2005.00	486.83
2006.00	484.49
2007.00	474.35
2008.00	461.87
2009.00	470.45
2010.00	461.09
2011.00	503.22
2012.00	504.78
2013.00	528.18
2014.00	507.90
2015.00	511.02
2016.00	510.24
2017.00	529.74
2018.00	547.69
2019.00	621.80
2020.00	757.55
2021.00	954.16
2022.00	1199.91
2023.00	1414.46
2024.00	1955.13
2025.00	3490.52
2026.00	6636.98
2027.00	11832.97
2028.00	18599.46
2029.00	25210.69
2030.00	29433.80
2031.00	30048.58
2032.00	27939.76
2033.00	24036.52
2034.00	19151.04
2035.00	14090.02
2036.00	9660.17
2037.00	6365.48
2038.00	3996.85
2039.00	2460.68
2040.00	1571.28
2041.00	1105.51
2042.00	873.80
2043.00	766.92
2044.00	684.22
2045.00	636.63
2046.00	608.54
2047.00	617.90
>>>>>End Processed Spectral Data<<<<<
