SpectraSuite Data File
++++++++++++++++++++++++++++++++++++
Date: Thu Nov 16 13:55:18 EST 2017
User: cheriyan
Dark Spectrum Present: No
Reference Spectrum Present: No
Number of Sampled Component Spectra: 1
Spectrometers: USB2+H05261
Integration Time (usec): 100000 (USB2+H05261)
Spectra Averaged: 1 (USB2+H05261)
Boxcar Smoothing: 1 (USB2+H05261)
Correct for Electrical Dark: No (USB2+H05261)
Strobe/Lamp Enabled: No (USB2+H05261)
Correct for Detector Non-linearity: No (USB2+H05261)
Correct for Stray Light: No (USB2+H05261)
Number of Pixels in Processed Spectrum: 2048
>>>>>Begin Processed Spectral Data<<<<<
0.00	332.36
1.00	332.36
2.00	320.65
3.00	301.15
4.00	300.37
5.00	259.80
6.00	255.12
7.00	214.55
8.00	227.03
9.00	223.13
10.00	245.76
11.00	259.02
12.00	222.35
13.00	208.31
14.00	189.58
15.00	216.11
16.00	250.44
17.00	260.58
18.00	286.33
19.00	286.33
20.00	323.77
21.00	309.73
22.00	298.03
23.00	297.25
24.00	318.31
25.00	333.14
26.00	346.40
27.00	388.53
28.00	381.51
29.00	377.61
30.00	373.71
31.00	358.10
32.00	369.02
33.00	369.80
34.00	393.99
35.00	397.11
36.00	371.36
37.00	405.69
38.00	414.27
39.00	448.60
40.00	433.00
41.00	450.16
42.00	438.46
43.00	444.70
44.00	413.49
45.00	410.37
46.00	415.84
47.00	436.90
48.00	444.70
49.00	429.88
50.00	420.52
51.00	415.84
52.00	443.14
53.00	427.54
54.00	443.14
55.00	404.91
56.00	410.37
57.00	407.25
58.00	442.36
59.00	443.92
60.00	407.25
61.00	390.09
62.00	387.75
63.00	411.15
64.00	432.22
65.00	433.00
66.00	408.81
67.00	405.69
68.00	396.33
69.00	409.59
70.00	390.87
71.00	386.97
72.00	379.95
73.00	380.73
74.00	395.55
75.00	376.83
76.00	363.56
77.00	390.09
78.00	426.76
79.00	432.22
80.00	427.54
81.00	408.03
82.00	394.77
83.00	402.57
84.00	417.40
85.00	441.58
86.00	404.91
87.00	424.42
88.00	410.37
89.00	414.27
90.00	409.59
91.00	444.70
92.00	454.06
93.00	445.48
94.00	406.47
95.00	394.77
96.00	404.13
97.00	443.14
98.00	435.34
99.00	410.37
100.00	373.71
101.00	401.01
102.00	425.20
103.00	440.80
104.00	423.64
105.00	421.30
106.00	416.62
107.00	422.08
108.00	433.00
109.00	442.36
110.00	419.74
111.00	395.55
112.00	375.27
113.00	385.41
114.00	384.63
115.00	384.63
116.00	414.27
117.00	434.56
118.00	447.04
119.00	428.32
120.00	407.25
121.00	392.43
122.00	397.11
123.00	425.98
124.00	465.77
125.00	444.70
126.00	422.86
127.00	379.95
128.00	398.67
129.00	393.21
130.00	414.27
131.00	407.25
132.00	392.43
133.00	373.71
134.00	369.02
135.00	367.46
136.00	371.36
137.00	372.15
138.00	371.36
139.00	371.36
140.00	397.11
141.00	399.45
142.00	411.93
143.00	424.42
144.00	478.25
145.00	513.36
146.00	500.09
147.00	489.95
148.00	443.92
149.00	438.46
150.00	412.71
151.00	407.25
152.00	390.87
153.00	389.31
154.00	410.37
155.00	401.79
156.00	390.09
157.00	379.17
158.00	418.18
159.00	431.44
160.00	443.92
161.00	417.40
162.00	404.13
163.00	396.33
164.00	393.21
165.00	399.45
166.00	386.97
167.00	398.67
168.00	400.23
169.00	418.18
170.00	433.78
171.00	422.86
172.00	415.06
173.00	378.39
174.00	393.99
175.00	387.75
176.00	401.01
177.00	388.53
178.00	393.99
179.00	410.37
180.00	427.54
181.00	425.20
182.00	422.86
183.00	404.13
184.00	403.35
185.00	393.99
186.00	401.01
187.00	399.45
188.00	414.27
189.00	436.12
190.00	412.71
191.00	398.67
192.00	369.80
193.00	441.58
194.00	474.35
195.00	516.48
196.00	511.80
197.00	496.97
198.00	470.45
199.00	450.94
200.00	439.24
201.00	432.22
202.00	423.64
203.00	400.23
204.00	410.37
205.00	411.15
206.00	427.54
207.00	424.42
208.00	404.91
209.00	413.49
210.00	415.06
211.00	435.34
212.00	436.90
213.00	433.78
214.00	414.27
215.00	407.25
216.00	413.49
217.00	433.00
218.00	438.46
219.00	408.81
220.00	373.71
221.00	368.24
222.00	415.06
223.00	422.86
224.00	400.23
225.00	378.39
226.00	396.33
227.00	405.69
228.00	401.01
229.00	378.39
230.00	358.88
231.00	374.49
232.00	372.93
233.00	400.23
234.00	376.83
235.00	390.09
236.00	392.43
237.00	419.74
238.00	428.32
239.00	408.03
240.00	383.85
241.00	392.43
242.00	411.15
243.00	415.84
244.00	403.35
245.00	418.18
246.00	430.66
247.00	465.77
248.00	448.60
249.00	456.40
250.00	422.08
251.00	425.20
252.00	404.91
253.00	435.34
254.00	454.84
255.00	489.95
256.00	475.13
257.00	477.47
258.00	455.62
259.00	449.38
260.00	424.42
261.00	415.06
262.00	398.67
263.00	401.79
264.00	396.33
265.00	434.56
266.00	469.67
267.00	532.86
268.00	556.27
269.00	560.17
270.00	543.78
271.00	544.56
272.00	580.45
273.00	608.54
274.00	632.72
275.00	601.52
276.00	599.96
277.00	564.85
278.00	566.41
279.00	528.96
280.00	497.75
281.00	457.18
282.00	428.32
283.00	411.15
284.00	394.77
285.00	396.33
286.00	416.62
287.00	424.42
288.00	392.43
289.00	371.36
290.00	357.32
291.00	371.36
292.00	383.07
293.00	385.41
294.00	393.99
295.00	395.55
296.00	428.32
297.00	439.24
298.00	451.72
299.00	436.90
300.00	440.80
301.00	434.56
302.00	411.93
303.00	413.49
304.00	399.45
305.00	436.12
306.00	468.11
307.00	536.76
308.00	607.76
309.00	610.88
310.00	611.66
311.00	556.27
312.00	533.64
313.00	472.01
314.00	464.99
315.00	436.12
316.00	429.10
317.00	408.81
318.00	424.42
319.00	428.32
320.00	422.08
321.00	419.74
322.00	422.08
323.00	438.46
324.00	422.08
325.00	426.76
326.00	429.88
327.00	422.08
328.00	416.62
329.00	397.11
330.00	418.96
331.00	410.37
332.00	418.96
333.00	393.99
334.00	387.75
335.00	392.43
336.00	391.65
337.00	384.63
338.00	354.20
339.00	369.80
340.00	389.31
341.00	426.76
342.00	417.40
343.00	418.96
344.00	429.10
345.00	464.21
346.00	550.81
347.00	610.10
348.00	724.79
349.00	736.49
350.00	731.81
351.00	642.87
352.00	582.01
353.00	551.59
354.00	539.10
355.00	518.82
356.00	479.81
357.00	490.73
358.00	476.69
359.00	475.91
360.00	450.94
361.00	457.96
362.00	454.84
363.00	438.46
364.00	407.25
365.00	401.01
366.00	383.85
367.00	423.64
368.00	464.99
369.00	486.83
370.00	471.23
371.00	440.02
372.00	425.20
373.00	404.91
374.00	387.75
375.00	386.19
376.00	415.84
377.00	422.86
378.00	433.78
379.00	423.64
380.00	432.22
381.00	428.32
382.00	420.52
383.00	417.40
384.00	407.25
385.00	411.93
386.00	416.62
387.00	422.86
388.00	436.12
389.00	448.60
390.00	469.67
391.00	464.99
392.00	457.18
393.00	457.96
394.00	449.38
395.00	442.36
396.00	428.32
397.00	448.60
398.00	452.50
399.00	448.60
400.00	410.37
401.00	413.49
402.00	408.81
403.00	419.74
404.00	394.77
405.00	413.49
406.00	428.32
407.00	437.68
408.00	370.58
409.00	338.60
410.00	319.87
411.00	371.36
412.00	401.79
413.00	420.52
414.00	433.00
415.00	442.36
416.00	440.80
417.00	422.86
418.00	410.37
419.00	390.09
420.00	377.61
421.00	365.90
422.00	389.31
423.00	412.71
424.00	431.44
425.00	425.20
426.00	412.71
427.00	419.74
428.00	429.88
429.00	454.06
430.00	411.93
431.00	415.06
432.00	383.07
433.00	387.75
434.00	366.68
435.00	379.17
436.00	372.15
437.00	377.61
438.00	382.29
439.00	425.20
440.00	461.87
441.00	475.13
442.00	491.51
443.00	471.23
444.00	482.15
445.00	472.79
446.00	467.33
447.00	456.40
448.00	407.25
449.00	408.81
450.00	402.57
451.00	441.58
452.00	443.92
453.00	431.44
454.00	403.35
455.00	381.51
456.00	420.52
457.00	440.80
458.00	450.94
459.00	395.55
460.00	407.25
461.00	411.15
462.00	447.04
463.00	435.34
464.00	424.42
465.00	424.42
466.00	433.00
467.00	452.50
468.00	429.88
469.00	447.04
470.00	426.76
471.00	414.27
472.00	375.27
473.00	401.79
474.00	425.98
475.00	430.66
476.00	391.65
477.00	389.31
478.00	396.33
479.00	422.08
480.00	421.30
481.00	435.34
482.00	418.96
483.00	414.27
484.00	410.37
485.00	431.44
486.00	436.12
487.00	415.06
488.00	436.90
489.00	460.31
490.00	452.50
491.00	418.18
492.00	397.11
493.00	427.54
494.00	444.70
495.00	447.04
496.00	429.88
497.00	440.02
498.00	440.80
499.00	443.14
500.00	417.40
501.00	432.22
502.00	447.04
503.00	439.24
504.00	408.03
505.00	383.07
506.00	412.71
507.00	421.30
508.00	430.66
509.00	421.30
510.00	433.78
511.00	443.14
512.00	408.81
513.00	392.43
514.00	388.53
515.00	423.64
516.00	435.34
517.00	441.58
518.00	425.20
519.00	404.91
520.00	397.11
521.00	421.30
522.00	440.80
523.00	433.78
524.00	408.81
525.00	404.13
526.00	410.37
527.00	435.34
528.00	425.20
529.00	407.25
530.00	376.05
531.00	390.87
532.00	414.27
533.00	439.24
534.00	470.45
535.00	466.55
536.00	443.14
537.00	402.57
538.00	398.67
539.00	438.46
540.00	461.87
541.00	454.84
542.00	445.48
543.00	458.75
544.00	485.27
545.00	425.98
546.00	379.95
547.00	351.86
548.00	399.45
549.00	415.06
550.00	424.42
551.00	435.34
552.00	440.80
553.00	436.90
554.00	420.52
555.00	448.60
556.00	475.91
557.00	476.69
558.00	449.38
559.00	415.84
560.00	397.89
561.00	380.73
562.00	398.67
563.00	413.49
564.00	413.49
565.00	393.99
566.00	415.84
567.00	425.20
568.00	423.64
569.00	384.63
570.00	390.09
571.00	418.18
572.00	440.80
573.00	435.34
574.00	443.92
575.00	465.77
576.00	475.91
577.00	443.92
578.00	428.32
579.00	408.81
580.00	413.49
581.00	407.25
582.00	412.71
583.00	422.86
584.00	413.49
585.00	422.08
586.00	440.80
587.00	453.28
588.00	468.11
589.00	455.62
590.00	450.94
591.00	431.44
592.00	414.27
593.00	421.30
594.00	424.42
595.00	438.46
596.00	444.70
597.00	438.46
598.00	425.20
599.00	401.79
600.00	438.46
601.00	432.22
602.00	456.40
603.00	454.84
604.00	461.09
605.00	426.76
606.00	398.67
607.00	397.11
608.00	415.84
609.00	420.52
610.00	436.90
611.00	424.42
612.00	404.91
613.00	410.37
614.00	432.22
615.00	437.68
616.00	424.42
617.00	403.35
618.00	418.96
619.00	433.78
620.00	461.09
621.00	467.33
622.00	464.21
623.00	453.28
624.00	447.82
625.00	434.56
626.00	433.00
627.00	426.76
628.00	439.24
629.00	458.74
630.00	471.23
631.00	457.96
632.00	427.54
633.00	404.13
634.00	401.01
635.00	392.43
636.00	411.15
637.00	404.91
638.00	404.91
639.00	422.08
640.00	430.66
641.00	445.48
642.00	419.74
643.00	440.02
644.00	430.66
645.00	418.96
646.00	389.31
647.00	416.62
648.00	437.68
649.00	443.14
650.00	449.38
651.00	429.10
652.00	447.04
653.00	425.98
654.00	461.09
655.00	453.28
656.00	479.03
657.00	431.44
658.00	425.20
659.00	396.33
660.00	404.91
661.00	418.18
662.00	443.92
663.00	478.25
664.00	461.09
665.00	444.70
666.00	426.76
667.00	421.30
668.00	415.84
669.00	420.52
670.00	437.68
671.00	437.68
672.00	429.88
673.00	429.10
674.00	414.27
675.00	430.66
676.00	420.52
677.00	431.44
678.00	422.86
679.00	442.36
680.00	479.03
681.00	471.23
682.00	457.18
683.00	408.03
684.00	425.20
685.00	422.86
686.00	433.78
687.00	422.08
688.00	418.18
689.00	421.30
690.00	411.93
691.00	418.18
692.00	446.26
693.00	426.76
694.00	421.30
695.00	397.11
696.00	435.34
697.00	411.15
698.00	410.37
699.00	392.43
700.00	422.86
701.00	425.98
702.00	429.10
703.00	436.12
704.00	433.00
705.00	406.47
706.00	395.55
707.00	399.45
708.00	437.68
709.00	448.60
710.00	448.60
711.00	445.48
712.00	416.62
713.00	384.63
714.00	358.10
715.00	367.46
716.00	377.61
717.00	414.27
718.00	470.45
719.00	487.61
720.00	471.23
721.00	445.48
722.00	457.96
723.00	464.99
724.00	436.12
725.00	415.84
726.00	412.71
727.00	436.90
728.00	440.02
729.00	449.38
730.00	445.48
731.00	447.82
732.00	449.38
733.00	450.94
734.00	469.67
735.00	473.57
736.00	511.02
737.00	537.54
738.00	532.86
739.00	498.53
740.00	444.70
741.00	437.68
742.00	436.12
743.00	464.21
744.00	486.05
745.00	468.11
746.00	441.58
747.00	421.30
748.00	416.62
749.00	398.67
750.00	403.35
751.00	434.56
752.00	450.94
753.00	433.78
754.00	425.20
755.00	451.72
756.00	469.67
757.00	475.91
758.00	450.94
759.00	446.26
760.00	436.90
761.00	475.91
762.00	469.67
763.00	465.77
764.00	461.09
765.00	468.11
766.00	460.31
767.00	428.32
768.00	433.00
769.00	449.38
770.00	457.96
771.00	446.26
772.00	429.88
773.00	445.48
774.00	449.38
775.00	454.84
776.00	464.21
777.00	456.40
778.00	464.99
779.00	444.70
780.00	493.85
781.00	548.47
782.00	597.62
783.00	667.83
784.00	649.11
785.00	632.72
786.00	500.09
787.00	454.84
788.00	401.01
789.00	428.32
790.00	425.20
791.00	440.80
792.00	439.24
793.00	455.62
794.00	475.91
795.00	469.67
796.00	461.87
797.00	478.25
798.00	491.51
799.00	531.30
800.00	512.58
801.00	507.90
802.00	466.55
803.00	443.14
804.00	432.22
805.00	414.27
806.00	426.76
807.00	436.12
808.00	467.33
809.00	478.25
810.00	463.43
811.00	449.38
812.00	435.34
813.00	458.74
814.00	455.62
815.00	461.87
816.00	468.89
817.00	498.53
818.00	506.34
819.00	464.99
820.00	425.98
821.00	425.98
822.00	457.96
823.00	488.39
824.00	494.63
825.00	496.19
826.00	499.31
827.00	508.68
828.00	492.29
829.00	474.35
830.00	467.33
831.00	488.39
832.00	528.18
833.00	511.80
834.00	511.80
835.00	470.45
836.00	471.23
837.00	452.50
838.00	438.46
839.00	422.08
840.00	426.76
841.00	436.90
842.00	430.66
843.00	434.56
844.00	441.58
845.00	459.53
846.00	459.53
847.00	444.70
848.00	425.98
849.00	434.56
850.00	421.30
851.00	449.38
852.00	420.52
853.00	447.04
854.00	433.78
855.00	444.70
856.00	451.72
857.00	454.84
858.00	470.45
859.00	461.09
860.00	454.06
861.00	438.46
862.00	450.94
863.00	472.79
864.00	473.57
865.00	478.25
866.00	448.60
867.00	450.94
868.00	414.27
869.00	426.76
870.00	427.54
871.00	451.72
872.00	455.62
873.00	446.26
874.00	443.14
875.00	450.16
876.00	443.92
877.00	436.12
878.00	425.98
879.00	428.32
880.00	429.88
881.00	449.38
882.00	454.06
883.00	476.69
884.00	464.99
885.00	472.79
886.00	469.67
887.00	489.17
888.00	482.93
889.00	479.03
890.00	442.36
891.00	444.70
892.00	430.66
893.00	435.34
894.00	443.92
895.00	452.50
896.00	467.33
897.00	468.11
898.00	462.65
899.00	461.09
900.00	466.55
901.00	455.62
902.00	476.69
903.00	528.96
904.00	649.89
905.00	780.18
906.00	834.01
907.00	816.07
908.00	741.17
909.00	1009.55
910.00	1027.50
911.00	1074.31
912.00	839.47
913.00	860.54
914.00	838.69
915.00	734.93
916.00	614.78
917.00	514.14
918.00	492.29
919.00	450.16
920.00	436.12
921.00	410.37
922.00	457.96
923.00	479.81
924.00	505.56
925.00	471.23
926.00	456.40
927.00	411.15
928.00	419.74
929.00	433.00
930.00	443.14
931.00	463.43
932.00	436.12
933.00	427.54
934.00	407.25
935.00	423.64
936.00	472.79
937.00	478.25
938.00	468.89
939.00	433.00
940.00	452.50
941.00	444.70
942.00	472.79
943.00	624.14
944.00	1039.98
945.00	1856.82
946.00	2886.66
947.00	3663.72
948.00	3749.54
949.00	3187.81
950.00	2359.26
951.00	1597.03
952.00	1038.42
953.00	709.96
954.00	552.37
955.00	474.35
956.00	448.60
957.00	453.28
958.00	466.55
959.00	461.87
960.00	467.33
961.00	457.96
962.00	451.72
963.00	438.46
964.00	440.80
965.00	472.01
966.00	469.67
967.00	476.69
968.00	462.65
969.00	456.40
970.00	457.18
971.00	442.36
972.00	419.74
973.00	405.69
974.00	419.74
975.00	441.58
976.00	423.64
977.00	408.81
978.00	432.22
979.00	457.18
980.00	447.04
981.00	422.86
982.00	437.68
983.00	463.43
984.00	449.38
985.00	418.96
986.00	409.59
987.00	418.96
988.00	418.96
989.00	413.49
990.00	431.44
991.00	427.54
992.00	440.80
993.00	435.34
994.00	468.11
995.00	464.21
996.00	454.84
997.00	428.32
998.00	434.56
999.00	449.38
1000.00	454.84
1001.00	448.60
1002.00	457.18
1003.00	454.06
1004.00	479.81
1005.00	460.31
1006.00	462.65
1007.00	456.40
1008.00	466.55
1009.00	466.55
1010.00	461.09
1011.00	455.62
1012.00	469.67
1013.00	455.62
1014.00	454.84
1015.00	438.46
1016.00	449.38
1017.00	438.46
1018.00	414.27
1019.00	409.59
1020.00	425.20
1021.00	460.31
1022.00	449.38
1023.00	445.48
1024.00	417.40
1025.00	411.15
1026.00	405.69
1027.00	443.92
1028.00	439.24
1029.00	428.32
1030.00	425.98
1031.00	446.26
1032.00	453.28
1033.00	420.52
1034.00	411.15
1035.00	429.88
1036.00	464.21
1037.00	471.23
1038.00	469.67
1039.00	452.50
1040.00	446.26
1041.00	458.75
1042.00	485.27
1043.00	530.52
1044.00	521.16
1045.00	546.91
1046.00	525.84
1047.00	524.28
1048.00	468.11
1049.00	453.28
1050.00	454.06
1051.00	472.01
1052.00	468.89
1053.00	473.57
1054.00	457.96
1055.00	462.65
1056.00	456.40
1057.00	464.21
1058.00	472.01
1059.00	440.02
1060.00	435.34
1061.00	411.93
1062.00	447.04
1063.00	465.77
1064.00	470.45
1065.00	465.77
1066.00	450.16
1067.00	462.65
1068.00	433.78
1069.00	436.12
1070.00	414.27
1071.00	409.59
1072.00	404.13
1073.00	426.76
1074.00	454.06
1075.00	439.24
1076.00	401.01
1077.00	390.87
1078.00	408.03
1079.00	443.92
1080.00	444.70
1081.00	432.22
1082.00	426.76
1083.00	433.78
1084.00	452.50
1085.00	429.88
1086.00	423.64
1087.00	424.42
1088.00	449.38
1089.00	466.55
1090.00	444.70
1091.00	433.78
1092.00	440.02
1093.00	443.14
1094.00	447.04
1095.00	447.04
1096.00	457.18
1097.00	457.18
1098.00	468.11
1099.00	534.42
1100.00	599.96
1101.00	599.96
1102.00	563.29
1103.00	528.96
1104.00	513.36
1105.00	498.53
1106.00	479.03
1107.00	452.50
1108.00	443.92
1109.00	436.12
1110.00	444.70
1111.00	418.96
1112.00	436.90
1113.00	447.04
1114.00	469.67
1115.00	460.31
1116.00	454.06
1117.00	461.09
1118.00	449.38
1119.00	468.11
1120.00	477.47
1121.00	486.05
1122.00	515.70
1123.00	518.04
1124.00	537.54
1125.00	479.03
1126.00	447.04
1127.00	420.52
1128.00	428.32
1129.00	470.45
1130.00	473.57
1131.00	500.09
1132.00	484.49
1133.00	478.25
1134.00	455.62
1135.00	457.18
1136.00	472.79
1137.00	493.07
1138.00	505.56
1139.00	535.20
1140.00	540.66
1141.00	537.54
1142.00	511.02
1143.00	477.47
1144.00	431.44
1145.00	401.79
1146.00	439.24
1147.00	464.99
1148.00	518.04
1149.00	511.80
1150.00	537.54
1151.00	525.84
1152.00	525.06
1153.00	522.72
1154.00	548.47
1155.00	599.18
1156.00	671.73
1157.00	716.20
1158.00	716.20
1159.00	681.88
1160.00	664.71
1161.00	660.03
1162.00	624.92
1163.00	647.55
1164.00	780.18
1165.00	1064.94
1166.00	1411.34
1167.00	1641.50
1168.00	1691.43
1169.00	1540.07
1170.00	1284.95
1171.00	1041.54
1172.00	842.59
1173.00	727.13
1174.00	644.43
1175.00	590.60
1176.00	609.32
1177.00	615.56
1178.00	620.24
1179.00	589.82
1180.00	606.20
1181.00	624.92
1182.00	644.43
1183.00	622.58
1184.00	600.74
1185.00	571.87
1186.00	557.83
1187.00	597.62
1188.00	634.29
1189.00	715.42
1190.00	753.65
1191.00	840.25
1192.00	873.80
1193.00	917.49
1194.00	869.90
1195.00	838.69
1196.00	809.83
1197.00	817.63
1198.00	872.24
1199.00	971.32
1200.00	1166.37
1201.00	1353.61
1202.00	1508.09
1203.00	1526.81
1204.00	1451.91
1205.00	1281.05
1206.00	1181.97
1207.00	1105.51
1208.00	1146.08
1209.00	1160.91
1210.00	1228.78
1211.00	1238.92
1212.00	1337.23
1213.00	1485.46
1214.00	1700.01
1215.00	1957.47
1216.00	2462.24
1217.00	5696.86
1218.00	21172.49
1219.00	41944.74
1220.00	59922.40
1221.00	65535.00
1222.00	65535.00
1223.00	65535.00
1224.00	65535.00
1225.00	65349.32
1226.00	56264.14
1227.00	40567.73
1228.00	21940.18
1229.00	10701.71
1230.00	5515.86
1231.00	3178.45
1232.00	2237.55
1233.00	1832.64
1234.00	1651.64
1235.00	1606.39
1236.00	2101.02
1237.00	3722.23
1238.00	7091.82
1239.00	11531.04
1240.00	15247.81
1241.00	16338.50
1242.00	14646.29
1243.00	11312.59
1244.00	7758.10
1245.00	4805.12
1246.00	2833.61
1247.00	1752.28
1248.00	1242.82
1249.00	1001.75
1250.00	964.30
1251.00	944.02
1252.00	1049.34
1253.00	1118.00
1254.00	1205.38
1255.00	1185.87
1256.00	1181.19
1257.00	1105.51
1258.00	1039.20
1259.00	949.48
1260.00	929.97
1261.00	920.61
1262.00	925.29
1263.00	898.77
1264.00	851.17
1265.00	807.48
1266.00	790.32
1267.00	763.01
1268.00	759.89
1269.00	731.81
1270.00	759.11
1271.00	787.20
1272.00	814.51
1273.00	817.63
1274.00	858.20
1275.00	1220.20
1276.00	2981.84
1277.00	7175.30
1278.00	14590.90
1279.00	22811.64
1280.00	28491.34
1281.00	28755.04
1282.00	24655.98
1283.00	18135.25
1284.00	11802.54
1285.00	6731.38
1286.00	3668.40
1287.00	2077.62
1288.00	1302.12
1289.00	969.76
1290.00	886.28
1291.00	884.72
1292.00	881.60
1293.00	878.48
1294.00	890.96
1295.00	1100.83
1296.00	1718.73
1297.00	2923.33
1298.00	4637.38
1299.00	6175.89
1300.00	6823.44
1301.00	6321.79
1302.00	5089.10
1303.00	3673.86
1304.00	2497.35
1305.00	1636.81
1306.00	1192.11
1307.00	942.46
1308.00	866.00
1309.00	819.97
1310.00	791.10
1311.00	718.54
1312.00	663.93
1313.00	617.12
1314.00	601.52
1315.00	603.08
1316.00	597.62
1317.00	596.06
1318.00	579.67
1319.00	570.31
1320.00	568.75
1321.00	551.59
1322.00	540.66
1323.00	530.52
1324.00	538.32
1325.00	567.19
1326.00	562.51
1327.00	574.99
1328.00	584.35
1329.00	663.93
1330.00	1003.31
1331.00	1950.45
1332.00	3598.96
1333.00	5563.45
1334.00	7025.51
1335.00	7403.89
1336.00	6717.34
1337.00	5293.51
1338.00	3730.81
1339.00	2380.32
1340.00	1500.28
1341.00	1027.50
1342.00	788.76
1343.00	686.56
1344.00	655.35
1345.00	645.21
1346.00	634.29
1347.00	606.98
1348.00	599.18
1349.00	614.78
1350.00	658.47
1351.00	684.22
1352.00	680.32
1353.00	685.78
1354.00	686.56
1355.00	738.05
1356.00	803.58
1357.00	880.82
1358.00	1433.97
1359.00	3469.45
1360.00	7706.60
1361.00	14244.50
1362.00	20471.11
1363.00	23970.21
1364.00	22824.12
1365.00	18852.23
1366.00	13537.66
1367.00	8876.87
1368.00	5184.29
1369.00	3046.60
1370.00	1926.26
1371.00	1498.72
1372.00	2140.03
1373.00	5445.65
1374.00	12662.30
1375.00	24307.24
1376.00	35615.15
1377.00	42293.48
1378.00	40840.79
1379.00	34273.24
1380.00	24832.30
1381.00	16097.42
1382.00	9050.85
1383.00	4897.96
1384.00	2680.69
1385.00	1621.99
1386.00	1142.18
1387.00	947.14
1388.00	848.05
1389.00	850.39
1390.00	826.99
1391.00	837.13
1392.00	796.56
1393.00	819.97
1394.00	878.48
1395.00	1098.49
1396.00	1381.70
1397.00	1671.92
1398.00	1845.12
1399.00	1866.97
1400.00	1803.77
1401.00	1700.01
1402.00	2243.79
1403.00	5753.82
1404.00	15031.70
1405.00	30788.19
1406.00	46606.31
1407.00	57052.90
1408.00	58944.05
1409.00	54706.12
1410.00	44885.23
1411.00	31775.11
1412.00	19051.96
1413.00	10177.43
1414.00	5389.47
1415.00	3109.79
1416.00	2464.58
1417.00	3623.15
1418.00	6608.11
1419.00	11202.58
1420.00	15403.07
1421.00	17497.06
1422.00	16439.14
1423.00	13491.63
1424.00	9776.42
1425.00	6425.55
1426.00	3817.41
1427.00	2226.63
1428.00	1451.91
1429.00	1042.32
1430.00	884.72
1431.00	832.45
1432.00	803.58
1433.00	812.95
1434.00	805.92
1435.00	794.22
1436.00	737.27
1437.00	655.35
1438.00	637.41
1439.00	606.20
1440.00	628.82
1441.00	628.04
1442.00	600.74
1443.00	575.77
1444.00	547.69
1445.00	599.96
1446.00	610.88
1447.00	651.45
1448.00	660.81
1449.00	682.66
1450.00	729.47
1451.00	1005.65
1452.00	1887.25
1453.00	3648.12
1454.00	6271.86
1455.00	8777.79
1456.00	10197.71
1457.00	9808.40
1458.00	8393.94
1459.00	6349.09
1460.00	4416.59
1461.00	2705.66
1462.00	1626.67
1463.00	1092.25
1464.00	851.17
1465.00	749.75
1466.00	686.56
1467.00	648.33
1468.00	615.56
1469.00	636.63
1470.00	601.52
1471.00	609.32
1472.00	595.28
1473.00	641.31
1474.00	621.80
1475.00	598.40
1476.00	596.06
1477.00	627.26
1478.00	655.35
1479.00	675.63
1480.00	689.68
1481.00	731.81
1482.00	805.14
1483.00	1185.09
1484.00	3106.67
1485.00	7705.04
1486.00	15830.60
1487.00	25650.71
1488.00	33273.06
1489.00	35377.20
1490.00	31720.50
1491.00	25017.99
1492.00	17395.64
1493.00	10755.54
1494.00	5866.94
1495.00	3208.09
1496.00	1866.19
1497.00	1192.11
1498.00	889.40
1499.00	760.67
1500.00	723.23
1501.00	702.16
1502.00	691.24
1503.00	679.54
1504.00	642.87
1505.00	642.09
1506.00	623.36
1507.00	631.16
1508.00	670.17
1509.00	985.37
1510.00	1810.01
1511.00	3317.32
1512.00	5541.61
1513.00	7598.94
1514.00	8784.03
1515.00	8464.16
1516.00	7247.86
1517.00	5473.73
1518.00	3810.39
1519.00	2436.50
1520.00	1596.25
1521.00	1113.31
1522.00	867.56
1523.00	725.57
1524.00	650.67
1525.00	642.09
1526.00	721.67
1527.00	810.61
1528.00	1003.31
1529.00	2015.98
1530.00	4644.40
1531.00	9386.33
1532.00	15767.41
1533.00	21190.43
1534.00	23669.06
1535.00	22036.14
1536.00	18097.80
1537.00	13073.45
1538.00	8530.47
1539.00	4940.87
1540.00	2823.47
1541.00	1684.41
1542.00	1170.27
1543.00	915.93
1544.00	784.08
1545.00	732.59
1546.00	719.32
1547.00	732.59
1548.00	700.60
1549.00	683.44
1550.00	685.78
1551.00	689.68
1552.00	692.80
1553.00	703.72
1554.00	709.18
1555.00	727.91
1556.00	743.51
1557.00	802.80
1558.00	846.49
1559.00	905.01
1560.00	1018.91
1561.00	1753.84
1562.00	4656.11
1563.00	11158.89
1564.00	21819.25
1565.00	33741.94
1566.00	42156.95
1567.00	43607.30
1568.00	38839.63
1569.00	30616.55
1570.00	21495.48
1571.00	13384.74
1572.00	7585.68
1573.00	4494.61
1574.00	3923.52
1575.00	7731.57
1576.00	17467.42
1577.00	33034.32
1578.00	47788.28
1579.00	57064.60
1580.00	58312.89
1581.00	54304.33
1582.00	45311.21
1583.00	33034.32
1584.00	20409.47
1585.00	11126.13
1586.00	5823.25
1587.00	3183.91
1588.00	1928.60
1589.00	1322.40
1590.00	1033.74
1591.00	914.37
1592.00	828.55
1593.00	780.96
1594.00	745.85
1595.00	741.95
1596.00	728.69
1597.00	703.72
1598.00	653.79
1599.00	633.50
1600.00	610.88
1601.00	606.98
1602.00	586.69
1603.00	552.37
1604.00	545.34
1605.00	540.66
1606.00	564.07
1607.00	588.25
1608.00	607.76
1609.00	592.94
1610.00	576.55
1611.00	586.69
1612.00	557.83
1613.00	571.09
1614.00	532.86
1615.00	560.17
1616.00	571.87
1617.00	551.59
1618.00	589.03
1619.00	567.97
1620.00	603.08
1621.00	567.19
1622.00	583.57
1623.00	567.19
1624.00	606.98
1625.00	604.64
1626.00	620.24
1627.00	576.55
1628.00	595.28
1629.00	598.40
1630.00	601.52
1631.00	554.71
1632.00	555.49
1633.00	572.65
1634.00	592.94
1635.00	601.52
1636.00	594.50
1637.00	600.74
1638.00	594.50
1639.00	625.70
1640.00	632.72
1641.00	658.47
1642.00	653.01
1643.00	677.20
1644.00	745.85
1645.00	1277.15
1646.00	3404.70
1647.00	8145.06
1648.00	16145.02
1649.00	25446.30
1650.00	32659.84
1651.00	34668.80
1652.00	31907.74
1653.00	25999.45
1654.00	19146.36
1655.00	12375.97
1656.00	7160.48
1657.00	3928.20
1658.00	2191.52
1659.00	1360.63
1660.00	961.18
1661.00	800.46
1662.00	762.23
1663.00	867.56
1664.00	1490.14
1665.00	2910.07
1666.00	5355.15
1667.00	8405.64
1668.00	10959.17
1669.00	12125.54
1670.00	11488.91
1671.00	9770.18
1672.00	7417.16
1673.00	5089.88
1674.00	3148.02
1675.00	1905.20
1676.00	1235.80
1677.00	866.78
1678.00	645.21
1679.00	546.12
1680.00	518.82
1681.00	526.62
1682.00	549.25
1683.00	570.31
1684.00	560.95
1685.00	538.32
1686.00	554.71
1687.00	564.85
1688.00	560.17
1689.00	533.64
1690.00	520.38
1691.00	544.56
1692.00	529.74
1693.00	518.82
1694.00	497.75
1695.00	499.31
1696.00	518.82
1697.00	530.52
1698.00	548.47
1699.00	552.37
1700.00	549.25
1701.00	528.18
1702.00	528.96
1703.00	535.98
1704.00	576.55
1705.00	597.62
1706.00	617.90
1707.00	606.20
1708.00	666.27
1709.00	896.43
1710.00	1923.14
1711.00	4103.74
1712.00	7759.66
1713.00	12091.99
1714.00	15663.65
1715.00	17046.90
1716.00	16094.30
1717.00	13491.63
1718.00	10211.76
1719.00	6873.37
1720.00	4186.44
1721.00	2440.40
1722.00	1530.71
1723.00	1049.34
1724.00	822.31
1725.00	645.99
1726.00	587.47
1727.00	559.39
1728.00	555.49
1729.00	549.25
1730.00	514.92
1731.00	519.60
1732.00	505.56
1733.00	516.48
1734.00	521.16
1735.00	515.70
1736.00	512.58
1737.00	469.67
1738.00	479.81
1739.00	482.93
1740.00	504.78
1741.00	493.07
1742.00	475.91
1743.00	479.81
1744.00	490.73
1745.00	517.26
1746.00	553.15
1747.00	557.05
1748.00	565.63
1749.00	570.31
1750.00	569.53
1751.00	604.64
1752.00	581.23
1753.00	592.16
1754.00	556.27
1755.00	571.09
1756.00	588.25
1757.00	579.67
1758.00	579.67
1759.00	567.97
1760.00	583.57
1761.00	592.16
1762.00	631.16
1763.00	692.80
1764.00	844.93
1765.00	1561.14
1766.00	3777.62
1767.00	8088.11
1768.00	15015.32
1769.00	22773.41
1770.00	28814.34
1771.00	30385.61
1772.00	27874.22
1773.00	22721.14
1774.00	16725.47
1775.00	11039.53
1776.00	6597.97
1777.00	3844.72
1778.00	2271.88
1779.00	1469.08
1780.00	1038.42
1781.00	785.64
1782.00	700.60
1783.00	651.45
1784.00	637.41
1785.00	610.88
1786.00	595.28
1787.00	596.06
1788.00	589.03
1789.00	610.10
1790.00	629.60
1791.00	648.33
1792.00	807.48
1793.00	1576.74
1794.00	3513.14
1795.00	6835.14
1796.00	11467.06
1797.00	15908.62
1798.00	18589.31
1799.00	18432.50
1800.00	16085.72
1801.00	12568.68
1802.00	8925.24
1803.00	5724.95
1804.00	3441.37
1805.00	2012.08
1806.00	1224.88
1807.00	878.48
1808.00	681.88
1809.00	617.12
1810.00	569.53
1811.00	557.83
1812.00	546.91
1813.00	530.52
1814.00	516.48
1815.00	507.12
1816.00	514.92
1817.00	511.02
1818.00	518.04
1819.00	511.02
1820.00	528.96
1821.00	537.54
1822.00	593.72
1823.00	649.11
1824.00	687.34
1825.00	676.41
1826.00	636.63
1827.00	609.32
1828.00	564.07
1829.00	528.96
1830.00	495.41
1831.00	484.49
1832.00	482.93
1833.00	462.65
1834.00	459.53
1835.00	453.28
1836.00	480.59
1837.00	458.74
1838.00	459.53
1839.00	446.26
1840.00	457.18
1841.00	460.31
1842.00	463.43
1843.00	468.11
1844.00	459.53
1845.00	447.82
1846.00	436.90
1847.00	449.38
1848.00	429.10
1849.00	450.94
1850.00	435.34
1851.00	452.50
1852.00	422.86
1853.00	430.66
1854.00	417.40
1855.00	425.20
1856.00	417.40
1857.00	426.76
1858.00	425.98
1859.00	419.74
1860.00	440.80
1861.00	454.06
1862.00	478.25
1863.00	461.09
1864.00	450.94
1865.00	449.38
1866.00	445.48
1867.00	443.92
1868.00	415.06
1869.00	418.18
1870.00	411.15
1871.00	418.96
1872.00	425.98
1873.00	468.11
1874.00	464.99
1875.00	476.69
1876.00	448.60
1877.00	465.77
1878.00	444.70
1879.00	440.02
1880.00	416.62
1881.00	401.79
1882.00	416.62
1883.00	430.66
1884.00	460.31
1885.00	456.40
1886.00	451.72
1887.00	451.72
1888.00	448.60
1889.00	474.35
1890.00	464.21
1891.00	462.65
1892.00	433.00
1893.00	440.02
1894.00	426.76
1895.00	446.26
1896.00	459.53
1897.00	475.91
1898.00	461.87
1899.00	437.68
1900.00	448.60
1901.00	439.24
1902.00	421.30
1903.00	407.25
1904.00	442.36
1905.00	479.03
1906.00	486.05
1907.00	491.51
1908.00	528.96
1909.00	614.78
1910.00	628.04
1911.00	623.36
1912.00	571.09
1913.00	572.65
1914.00	538.32
1915.00	521.16
1916.00	500.87
1917.00	488.39
1918.00	491.51
1919.00	473.57
1920.00	504.78
1921.00	496.97
1922.00	517.26
1923.00	461.09
1924.00	457.18
1925.00	425.98
1926.00	457.96
1927.00	421.30
1928.00	422.86
1929.00	402.57
1930.00	410.37
1931.00	425.98
1932.00	451.72
1933.00	487.61
1934.00	493.85
1935.00	483.71
1936.00	482.93
1937.00	489.95
1938.00	486.83
1939.00	472.79
1940.00	450.94
1941.00	449.38
1942.00	468.89
1943.00	506.34
1944.00	539.10
1945.00	539.88
1946.00	589.03
1947.00	924.51
1948.00	1989.46
1949.00	4003.88
1950.00	7086.36
1951.00	10580.78
1952.00	13483.05
1953.00	14522.24
1954.00	13745.19
1955.00	11775.24
1956.00	9342.64
1957.00	6896.78
1958.00	4734.12
1959.00	3174.55
1960.00	2074.49
1961.00	1382.48
1962.00	1004.87
1963.00	804.36
1964.00	679.54
1965.00	582.79
1966.00	557.83
1967.00	511.02
1968.00	510.24
1969.00	524.28
1970.00	525.84
1971.00	525.84
1972.00	474.35
1973.00	519.60
1974.00	539.10
1975.00	639.75
1976.00	744.29
1977.00	937.77
1978.00	1141.40
1979.00	1272.47
1980.00	1313.04
1981.00	1238.14
1982.00	1152.32
1983.00	1017.35
1984.00	900.33
1985.00	757.55
1986.00	654.57
1987.00	589.03
1988.00	558.61
1989.00	532.86
1990.00	497.75
1991.00	475.13
1992.00	496.19
1993.00	516.48
1994.00	514.14
1995.00	511.02
1996.00	503.22
1997.00	493.85
1998.00	494.63
1999.00	477.47
2000.00	495.41
2001.00	503.22
2002.00	523.50
2003.00	535.20
2004.00	514.14
2005.00	494.63
2006.00	510.24
2007.00	496.97
2008.00	481.37
2009.00	434.56
2010.00	434.56
2011.00	450.94
2012.00	477.47
2013.00	511.80
2014.00	530.52
2015.00	540.66
2016.00	539.10
2017.00	557.83
2018.00	574.21
2019.00	636.63
2020.00	744.29
2021.00	905.01
2022.00	1130.48
2023.00	1378.58
2024.00	1959.81
2025.00	3496.76
2026.00	6676.77
2027.00	11873.54
2028.00	18580.73
2029.00	25160.76
2030.00	29561.75
2031.00	30209.29
2032.00	28049.76
2033.00	23823.53
2034.00	18899.83
2035.00	13845.83
2036.00	9550.17
2037.00	6330.37
2038.00	4000.76
2039.00	2475.51
2040.00	1584.54
2041.00	1089.91
2042.00	863.66
2043.00	757.55
2044.00	677.20
2045.00	633.50
2046.00	621.80
2047.00	634.29
>>>>>End Processed Spectral Data<<<<<
