SpectraSuite Data File
++++++++++++++++++++++++++++++++++++
Date: Thu Nov 16 13:55:14 EST 2017
User: cheriyan
Dark Spectrum Present: No
Reference Spectrum Present: No
Number of Sampled Component Spectra: 1
Spectrometers: USB2+H05261
Integration Time (usec): 100000 (USB2+H05261)
Spectra Averaged: 1 (USB2+H05261)
Boxcar Smoothing: 1 (USB2+H05261)
Correct for Electrical Dark: No (USB2+H05261)
Strobe/Lamp Enabled: No (USB2+H05261)
Correct for Detector Non-linearity: No (USB2+H05261)
Correct for Stray Light: No (USB2+H05261)
Number of Pixels in Processed Spectrum: 2048
>>>>>Begin Processed Spectral Data<<<<<
0.00	332.36
1.00	332.36
2.00	315.97
3.00	288.67
4.00	244.98
5.00	237.17
6.00	211.43
7.00	218.45
8.00	210.65
9.00	232.49
10.00	237.17
11.00	237.95
12.00	242.64
13.00	240.30
14.00	265.26
15.00	279.30
16.00	287.11
17.00	272.28
18.00	260.58
19.00	287.11
20.00	282.42
21.00	305.83
22.00	302.71
23.00	322.99
24.00	325.33
25.00	322.21
26.00	329.24
27.00	358.10
28.00	378.39
29.00	393.21
30.00	372.93
31.00	404.91
32.00	398.67
33.00	397.11
34.00	383.85
35.00	398.67
36.00	413.49
37.00	406.47
38.00	389.31
39.00	390.09
40.00	390.09
41.00	434.56
42.00	467.33
43.00	465.77
44.00	446.26
45.00	422.86
46.00	444.70
47.00	477.47
48.00	459.53
49.00	455.62
50.00	462.65
51.00	493.85
52.00	485.27
53.00	439.24
54.00	393.99
55.00	429.10
56.00	401.79
57.00	443.92
58.00	408.81
59.00	453.28
60.00	446.26
61.00	428.32
62.00	418.18
63.00	422.08
64.00	393.21
65.00	375.27
66.00	365.90
67.00	408.81
68.00	406.47
69.00	391.65
70.00	413.49
71.00	436.90
72.00	454.06
73.00	414.27
74.00	406.47
75.00	392.43
76.00	390.09
77.00	370.58
78.00	381.51
79.00	412.71
80.00	431.44
81.00	440.80
82.00	423.64
83.00	417.40
84.00	408.81
85.00	400.23
86.00	408.03
87.00	402.57
88.00	426.76
89.00	407.25
90.00	402.57
91.00	396.33
92.00	401.79
93.00	383.85
94.00	375.27
95.00	362.78
96.00	386.19
97.00	369.02
98.00	393.99
99.00	409.59
100.00	435.34
101.00	436.90
102.00	415.06
103.00	421.30
104.00	410.37
105.00	410.37
106.00	392.43
107.00	384.63
108.00	390.87
109.00	400.23
110.00	401.01
111.00	398.67
112.00	402.57
113.00	416.62
114.00	414.27
115.00	401.79
116.00	419.74
117.00	418.18
118.00	430.66
119.00	384.63
120.00	363.56
121.00	354.98
122.00	402.57
123.00	422.86
124.00	407.25
125.00	391.65
126.00	400.23
127.00	404.91
128.00	397.11
129.00	397.89
130.00	398.67
131.00	422.08
132.00	435.34
133.00	451.72
134.00	429.88
135.00	418.96
136.00	406.47
137.00	396.33
138.00	386.97
139.00	394.77
140.00	423.64
141.00	426.76
142.00	418.18
143.00	418.18
144.00	432.22
145.00	466.55
146.00	490.73
147.00	514.14
148.00	498.53
149.00	472.79
150.00	433.78
151.00	403.35
152.00	412.71
153.00	424.42
154.00	465.77
155.00	453.28
156.00	452.50
157.00	437.68
158.00	437.68
159.00	429.10
160.00	414.27
161.00	396.33
162.00	408.03
163.00	408.03
164.00	418.18
165.00	415.84
166.00	394.77
167.00	391.65
168.00	367.46
169.00	401.79
170.00	390.09
171.00	389.31
172.00	372.93
173.00	360.44
174.00	381.51
175.00	388.53
176.00	407.25
177.00	427.54
178.00	440.80
179.00	444.70
180.00	414.27
181.00	390.09
182.00	376.05
183.00	384.63
184.00	399.45
185.00	401.01
186.00	403.35
187.00	407.25
188.00	397.89
189.00	372.15
190.00	356.54
191.00	402.57
192.00	412.71
193.00	446.26
194.00	468.89
195.00	511.80
196.00	529.74
197.00	496.19
198.00	501.65
199.00	480.59
200.00	500.87
201.00	498.53
202.00	483.71
203.00	459.53
204.00	433.78
205.00	408.81
206.00	415.84
207.00	400.23
208.00	428.32
209.00	412.71
210.00	429.88
211.00	436.90
212.00	426.76
213.00	411.93
214.00	397.11
215.00	408.81
216.00	400.23
217.00	390.09
218.00	375.27
219.00	384.63
220.00	409.59
221.00	404.13
222.00	388.53
223.00	377.61
224.00	384.63
225.00	402.57
226.00	393.99
227.00	400.23
228.00	370.58
229.00	357.32
230.00	375.27
231.00	381.51
232.00	408.81
233.00	376.05
234.00	401.01
235.00	378.39
236.00	393.99
237.00	388.53
238.00	381.51
239.00	391.65
240.00	417.40
241.00	429.10
242.00	412.71
243.00	396.33
244.00	404.91
245.00	430.66
246.00	427.54
247.00	450.94
248.00	444.70
249.00	447.04
250.00	397.11
251.00	396.33
252.00	427.54
253.00	450.94
254.00	475.13
255.00	445.48
256.00	447.04
257.00	401.79
258.00	399.45
259.00	409.59
260.00	418.96
261.00	424.42
262.00	397.89
263.00	419.74
264.00	404.13
265.00	426.76
266.00	457.96
267.00	517.26
268.00	532.86
269.00	516.48
270.00	512.58
271.00	570.31
272.00	629.60
273.00	624.14
274.00	610.10
275.00	564.07
276.00	585.91
277.00	557.05
278.00	532.86
279.00	486.83
280.00	466.55
281.00	459.53
282.00	454.06
283.00	450.16
284.00	425.20
285.00	404.91
286.00	404.91
287.00	434.56
288.00	458.74
289.00	460.31
290.00	464.21
291.00	443.92
292.00	449.38
293.00	417.40
294.00	425.20
295.00	389.31
296.00	413.49
297.00	403.35
298.00	414.27
299.00	401.79
300.00	387.75
301.00	408.03
302.00	425.20
303.00	452.50
304.00	436.90
305.00	435.34
306.00	489.17
307.00	556.27
308.00	658.47
309.00	673.29
310.00	692.02
311.00	606.98
312.00	555.49
313.00	489.17
314.00	434.56
315.00	431.44
316.00	418.96
317.00	449.38
318.00	425.98
319.00	422.86
320.00	399.45
321.00	411.15
322.00	408.03
323.00	410.37
324.00	401.01
325.00	403.35
326.00	427.54
327.00	420.52
328.00	409.59
329.00	378.39
330.00	411.15
331.00	420.52
332.00	451.72
333.00	415.06
334.00	388.53
335.00	396.33
336.00	413.49
337.00	438.46
338.00	425.98
339.00	435.34
340.00	450.16
341.00	462.65
342.00	454.84
343.00	415.84
344.00	452.50
345.00	475.13
346.00	571.87
347.00	616.34
348.00	706.06
349.00	750.53
350.00	706.06
351.00	623.36
352.00	552.37
353.00	546.91
354.00	535.98
355.00	521.16
356.00	500.09
357.00	482.15
358.00	467.33
359.00	439.24
360.00	454.84
361.00	443.14
362.00	423.64
363.00	402.57
364.00	407.25
365.00	447.04
366.00	433.78
367.00	423.64
368.00	426.76
369.00	440.80
370.00	429.10
371.00	401.79
372.00	395.55
373.00	393.21
374.00	402.57
375.00	385.41
376.00	398.67
377.00	385.41
378.00	407.25
379.00	419.74
380.00	425.20
381.00	418.18
382.00	436.90
383.00	433.00
384.00	411.93
385.00	397.89
386.00	412.71
387.00	438.46
388.00	425.20
389.00	411.15
390.00	406.47
391.00	408.81
392.00	401.79
393.00	414.27
394.00	425.98
395.00	455.62
396.00	476.69
397.00	486.83
398.00	465.77
399.00	443.14
400.00	424.42
401.00	413.49
402.00	392.43
403.00	374.49
404.00	401.01
405.00	424.42
406.00	442.36
407.00	415.84
408.00	406.47
409.00	404.91
410.00	429.10
411.00	441.58
412.00	457.96
413.00	449.38
414.00	445.48
415.00	415.84
416.00	409.59
417.00	401.79
418.00	436.90
419.00	447.82
420.00	453.28
421.00	434.56
422.00	441.58
423.00	451.72
424.00	454.06
425.00	451.72
426.00	452.50
427.00	455.62
428.00	446.26
429.00	442.36
430.00	415.84
431.00	422.08
432.00	383.85
433.00	419.74
434.00	418.18
435.00	439.24
436.00	433.78
437.00	425.98
438.00	407.25
439.00	403.35
440.00	412.71
441.00	450.94
442.00	462.65
443.00	468.89
444.00	431.44
445.00	405.69
446.00	387.75
447.00	384.63
448.00	389.31
449.00	375.27
450.00	411.93
451.00	401.79
452.00	424.42
453.00	408.81
454.00	440.02
455.00	458.75
456.00	445.48
457.00	408.03
458.00	393.99
459.00	415.06
460.00	419.74
461.00	401.01
462.00	390.87
463.00	393.21
464.00	379.17
465.00	380.73
466.00	403.35
467.00	407.25
468.00	409.59
469.00	404.13
470.00	436.12
471.00	433.78
472.00	427.54
473.00	397.89
474.00	409.59
475.00	412.71
476.00	432.22
477.00	434.56
478.00	439.24
479.00	454.84
480.00	438.46
481.00	454.06
482.00	436.12
483.00	447.04
484.00	429.88
485.00	422.86
486.00	417.40
487.00	411.15
488.00	404.91
489.00	426.76
490.00	406.47
491.00	399.45
492.00	388.53
493.00	414.27
494.00	457.96
495.00	470.45
496.00	464.99
497.00	447.04
498.00	454.84
499.00	454.06
500.00	472.01
501.00	444.70
502.00	455.62
503.00	440.02
504.00	457.18
505.00	468.11
506.00	482.15
507.00	458.74
508.00	424.42
509.00	415.84
510.00	408.81
511.00	416.62
512.00	409.59
513.00	414.27
514.00	422.86
515.00	423.64
516.00	424.42
517.00	438.46
518.00	425.20
519.00	415.06
520.00	411.15
521.00	433.00
522.00	455.62
523.00	444.70
524.00	401.79
525.00	379.17
526.00	349.52
527.00	403.35
528.00	439.24
529.00	464.21
530.00	439.24
531.00	422.86
532.00	419.74
533.00	439.24
534.00	450.16
535.00	445.48
536.00	422.08
537.00	428.32
538.00	426.76
539.00	422.08
540.00	397.89
541.00	408.81
542.00	401.01
543.00	403.35
544.00	401.79
545.00	409.59
546.00	418.18
547.00	433.00
548.00	472.79
549.00	468.11
550.00	482.15
551.00	432.22
552.00	404.91
553.00	375.27
554.00	383.85
555.00	434.56
556.00	437.68
557.00	457.18
558.00	447.04
559.00	447.04
560.00	447.04
561.00	440.80
562.00	440.80
563.00	404.13
564.00	393.21
565.00	407.25
566.00	429.10
567.00	424.42
568.00	422.08
569.00	398.67
570.00	375.27
571.00	340.94
572.00	362.00
573.00	432.22
574.00	452.50
575.00	464.99
576.00	418.96
577.00	435.34
578.00	432.22
579.00	450.16
580.00	434.56
581.00	440.80
582.00	432.22
583.00	440.80
584.00	421.30
585.00	447.82
586.00	452.50
587.00	464.21
588.00	419.74
589.00	401.01
590.00	401.79
591.00	415.06
592.00	417.40
593.00	398.67
594.00	407.25
595.00	433.78
596.00	486.05
597.00	473.57
598.00	440.80
599.00	403.35
600.00	410.37
601.00	433.78
602.00	432.22
603.00	416.62
604.00	404.91
605.00	397.89
606.00	407.25
607.00	409.59
608.00	430.66
609.00	433.78
610.00	413.49
611.00	416.62
612.00	433.78
613.00	448.60
614.00	416.62
615.00	423.64
616.00	437.68
617.00	463.43
618.00	440.80
619.00	435.34
620.00	420.52
621.00	438.46
622.00	447.82
623.00	466.55
624.00	458.75
625.00	445.48
626.00	458.74
627.00	444.70
628.00	468.89
629.00	474.35
630.00	487.61
631.00	465.77
632.00	419.74
633.00	431.44
634.00	407.25
635.00	416.62
636.00	381.51
637.00	386.97
638.00	404.91
639.00	425.98
640.00	438.46
641.00	411.15
642.00	401.79
643.00	403.35
644.00	410.37
645.00	417.40
646.00	418.96
647.00	424.42
648.00	411.93
649.00	400.23
650.00	401.01
651.00	400.23
652.00	418.96
653.00	440.02
654.00	474.35
655.00	478.25
656.00	464.21
657.00	433.78
658.00	436.12
659.00	401.01
660.00	405.69
661.00	380.73
662.00	424.42
663.00	436.90
664.00	429.10
665.00	404.91
666.00	376.83
667.00	369.02
668.00	383.85
669.00	394.77
670.00	425.20
671.00	397.89
672.00	393.99
673.00	394.77
674.00	411.15
675.00	418.96
676.00	393.21
677.00	404.91
678.00	370.58
679.00	373.71
680.00	393.21
681.00	446.26
682.00	452.50
683.00	443.92
684.00	413.49
685.00	429.10
686.00	425.20
687.00	425.98
688.00	447.04
689.00	433.00
690.00	434.56
691.00	411.15
692.00	433.78
693.00	458.75
694.00	470.45
695.00	433.78
696.00	418.18
697.00	408.81
698.00	459.53
699.00	464.21
700.00	460.31
701.00	461.87
702.00	460.31
703.00	452.50
704.00	413.49
705.00	403.35
706.00	407.25
707.00	426.76
708.00	454.84
709.00	465.77
710.00	461.09
711.00	448.60
712.00	450.16
713.00	425.98
714.00	417.40
715.00	414.27
716.00	437.68
717.00	440.02
718.00	506.34
719.00	508.68
720.00	492.29
721.00	418.96
722.00	398.67
723.00	405.69
724.00	398.67
725.00	400.23
726.00	408.81
727.00	427.54
728.00	450.94
729.00	468.11
730.00	464.99
731.00	467.33
732.00	450.16
733.00	475.91
734.00	477.47
735.00	521.94
736.00	533.64
737.00	522.72
738.00	500.09
739.00	472.79
740.00	474.35
741.00	481.37
742.00	468.11
743.00	487.61
744.00	450.94
745.00	457.96
746.00	411.93
747.00	406.47
748.00	382.29
749.00	413.49
750.00	433.78
751.00	445.48
752.00	435.34
753.00	426.76
754.00	427.54
755.00	421.30
756.00	421.30
757.00	438.46
758.00	470.45
759.00	480.59
760.00	506.34
761.00	489.95
762.00	486.05
763.00	445.48
764.00	443.92
765.00	448.60
766.00	440.80
767.00	442.36
768.00	430.66
769.00	436.90
770.00	423.64
771.00	444.70
772.00	440.80
773.00	443.14
774.00	433.00
775.00	439.24
776.00	431.44
777.00	411.93
778.00	423.64
779.00	484.49
780.00	555.49
781.00	579.67
782.00	577.33
783.00	612.44
784.00	625.70
785.00	543.78
786.00	454.84
787.00	390.87
788.00	420.52
789.00	403.35
790.00	431.44
791.00	417.40
792.00	432.22
793.00	411.15
794.00	418.96
795.00	442.36
796.00	454.06
797.00	457.96
798.00	433.00
799.00	436.12
800.00	449.38
801.00	454.06
802.00	460.31
803.00	467.33
804.00	465.77
805.00	468.11
806.00	463.43
807.00	458.75
808.00	453.28
809.00	466.55
810.00	475.13
811.00	464.99
812.00	436.12
813.00	421.30
814.00	419.74
815.00	413.49
816.00	436.12
817.00	433.78
818.00	439.24
819.00	418.96
820.00	424.42
821.00	445.48
822.00	490.73
823.00	532.86
824.00	529.74
825.00	515.70
826.00	468.89
827.00	473.57
828.00	447.04
829.00	473.57
830.00	479.03
831.00	475.91
832.00	467.33
833.00	444.70
834.00	450.94
835.00	413.49
836.00	415.06
837.00	419.74
838.00	451.72
839.00	457.18
840.00	451.72
841.00	456.40
842.00	448.60
843.00	484.49
844.00	486.83
845.00	500.87
846.00	458.74
847.00	439.24
848.00	421.30
849.00	446.26
850.00	464.21
851.00	465.77
852.00	429.88
853.00	401.01
854.00	417.40
855.00	438.46
856.00	466.55
857.00	440.80
858.00	425.98
859.00	409.59
860.00	404.91
861.00	428.32
862.00	440.80
863.00	450.94
864.00	429.10
865.00	418.96
866.00	440.80
867.00	418.18
868.00	402.57
869.00	386.19
870.00	398.67
871.00	419.74
872.00	430.66
873.00	463.43
874.00	447.82
875.00	453.28
876.00	442.36
877.00	456.40
878.00	452.50
879.00	441.58
880.00	435.34
881.00	410.37
882.00	428.32
883.00	436.12
884.00	448.60
885.00	460.31
886.00	454.06
887.00	444.70
888.00	425.98
889.00	430.66
890.00	425.20
891.00	421.30
892.00	418.18
893.00	423.64
894.00	439.24
895.00	434.56
896.00	457.18
897.00	452.50
898.00	456.40
899.00	460.31
900.00	443.92
901.00	436.90
902.00	454.06
903.00	541.44
904.00	671.73
905.00	785.64
906.00	824.65
907.00	779.40
908.00	716.20
909.00	936.99
910.00	943.24
911.00	1007.99
912.00	836.35
913.00	879.26
914.00	834.79
915.00	742.73
916.00	644.43
917.00	561.73
918.00	496.97
919.00	472.79
920.00	448.60
921.00	441.58
922.00	443.92
923.00	449.38
924.00	447.82
925.00	450.94
926.00	451.72
927.00	422.86
928.00	419.74
929.00	451.72
930.00	486.83
931.00	491.51
932.00	472.01
933.00	434.56
934.00	422.08
935.00	418.96
936.00	427.54
937.00	439.24
938.00	444.70
939.00	456.40
940.00	445.48
941.00	408.81
942.00	436.90
943.00	614.00
944.00	1089.13
945.00	1879.45
946.00	2910.07
947.00	3600.52
948.00	3730.03
949.00	3190.15
950.00	2413.09
951.00	1661.00
952.00	1069.62
953.00	735.71
954.00	584.35
955.00	532.86
956.00	504.78
957.00	486.83
958.00	424.42
959.00	394.77
960.00	381.51
961.00	436.12
962.00	452.50
963.00	439.24
964.00	422.86
965.00	456.40
966.00	471.23
967.00	507.90
968.00	471.23
969.00	475.13
970.00	447.04
971.00	440.02
972.00	433.00
973.00	427.54
974.00	447.04
975.00	441.58
976.00	424.42
977.00	418.96
978.00	422.86
979.00	461.87
980.00	468.11
981.00	450.94
982.00	450.94
983.00	448.60
984.00	447.82
985.00	408.81
986.00	406.47
987.00	427.54
988.00	453.28
989.00	438.46
990.00	431.44
991.00	425.20
992.00	433.00
993.00	440.02
994.00	430.66
995.00	442.36
996.00	437.68
997.00	436.90
998.00	437.68
999.00	445.48
1000.00	459.53
1001.00	456.40
1002.00	442.36
1003.00	456.40
1004.00	482.15
1005.00	504.00
1006.00	490.73
1007.00	464.99
1008.00	447.82
1009.00	461.09
1010.00	475.91
1011.00	482.15
1012.00	460.31
1013.00	418.18
1014.00	422.86
1015.00	409.59
1016.00	454.06
1017.00	447.04
1018.00	447.82
1019.00	428.32
1020.00	405.69
1021.00	433.78
1022.00	445.48
1023.00	484.49
1024.00	460.31
1025.00	431.44
1026.00	403.35
1027.00	422.08
1028.00	450.94
1029.00	482.93
1030.00	485.27
1031.00	492.29
1032.00	474.35
1033.00	467.33
1034.00	446.26
1035.00	448.60
1036.00	444.70
1037.00	457.18
1038.00	458.75
1039.00	468.89
1040.00	486.05
1041.00	518.04
1042.00	535.20
1043.00	530.52
1044.00	526.62
1045.00	572.65
1046.00	567.97
1047.00	541.44
1048.00	475.13
1049.00	468.11
1050.00	471.23
1051.00	468.89
1052.00	458.74
1053.00	462.65
1054.00	443.14
1055.00	443.92
1056.00	459.53
1057.00	473.57
1058.00	486.83
1059.00	457.96
1060.00	454.84
1061.00	475.13
1062.00	487.61
1063.00	511.80
1064.00	483.71
1065.00	455.62
1066.00	439.24
1067.00	453.28
1068.00	472.79
1069.00	473.57
1070.00	467.33
1071.00	452.50
1072.00	447.04
1073.00	445.48
1074.00	457.96
1075.00	482.93
1076.00	480.59
1077.00	484.49
1078.00	470.45
1079.00	484.49
1080.00	451.72
1081.00	435.34
1082.00	396.33
1083.00	404.13
1084.00	400.23
1085.00	430.66
1086.00	476.69
1087.00	491.51
1088.00	496.19
1089.00	479.03
1090.00	475.13
1091.00	442.36
1092.00	433.00
1093.00	444.70
1094.00	473.57
1095.00	490.73
1096.00	458.74
1097.00	472.01
1098.00	477.47
1099.00	496.19
1100.00	497.75
1101.00	530.52
1102.00	592.94
1103.00	577.33
1104.00	550.03
1105.00	482.93
1106.00	456.40
1107.00	434.56
1108.00	447.04
1109.00	475.13
1110.00	470.45
1111.00	445.48
1112.00	440.80
1113.00	440.02
1114.00	460.31
1115.00	458.75
1116.00	476.69
1117.00	466.55
1118.00	447.82
1119.00	440.02
1120.00	475.13
1121.00	493.85
1122.00	534.42
1123.00	504.00
1124.00	516.48
1125.00	472.01
1126.00	481.37
1127.00	446.26
1128.00	436.12
1129.00	427.54
1130.00	440.80
1131.00	443.14
1132.00	452.50
1133.00	454.84
1134.00	451.72
1135.00	442.36
1136.00	460.31
1137.00	483.71
1138.00	521.94
1139.00	520.38
1140.00	515.70
1141.00	498.53
1142.00	496.97
1143.00	496.19
1144.00	501.65
1145.00	471.23
1146.00	455.62
1147.00	440.80
1148.00	472.79
1149.00	468.89
1150.00	495.41
1151.00	501.65
1152.00	522.72
1153.00	511.80
1154.00	536.76
1155.00	608.54
1156.00	688.12
1157.00	743.51
1158.00	750.53
1159.00	706.84
1160.00	650.67
1161.00	603.08
1162.00	587.47
1163.00	614.78
1164.00	767.70
1165.00	1044.66
1166.00	1416.02
1167.00	1663.34
1168.00	1696.11
1169.00	1519.01
1170.00	1274.03
1171.00	1064.94
1172.00	876.14
1173.00	709.18
1174.00	586.69
1175.00	543.78
1176.00	545.34
1177.00	576.55
1178.00	588.25
1179.00	603.86
1180.00	616.34
1181.00	616.34
1182.00	645.99
1183.00	647.55
1184.00	655.35
1185.00	623.36
1186.00	619.46
1187.00	634.29
1188.00	687.34
1189.00	722.45
1190.00	787.20
1191.00	846.49
1192.00	886.28
1193.00	909.69
1194.00	878.48
1195.00	844.93
1196.00	792.66
1197.00	797.34
1198.00	864.44
1199.00	988.49
1200.00	1189.77
1201.00	1379.36
1202.00	1491.70
1203.00	1479.22
1204.00	1384.82
1205.00	1262.33
1206.00	1164.81
1207.00	1130.48
1208.00	1150.76
1209.00	1146.08
1210.00	1171.05
1211.00	1212.40
1212.00	1346.59
1213.00	1481.56
1214.00	1694.55
1215.00	1966.83
1216.00	2521.54
1217.00	5799.85
1218.00	21192.77
1219.00	41940.84
1220.00	59860.76
1221.00	65535.00
1222.00	65535.00
1223.00	65535.00
1224.00	65535.00
1225.00	65350.10
1226.00	56120.59
1227.00	40536.52
1228.00	21865.28
1229.00	10792.21
1230.00	5481.53
1231.00	3188.59
1232.00	2223.51
1233.00	1825.62
1234.00	1667.24
1235.00	1664.12
1236.00	2161.09
1237.00	3850.96
1238.00	7108.21
1239.00	11581.75
1240.00	15201.00
1241.00	16340.06
1242.00	14598.70
1243.00	11266.56
1244.00	7701.92
1245.00	4794.20
1246.00	2786.80
1247.00	1763.98
1248.00	1190.55
1249.00	989.27
1250.00	915.93
1251.00	954.16
1252.00	1036.86
1253.00	1145.30
1254.00	1220.98
1255.00	1237.36
1256.00	1183.53
1257.00	1121.12
1258.00	1009.55
1259.00	935.43
1260.00	879.26
1261.00	883.16
1262.00	890.18
1263.00	856.64
1264.00	823.09
1265.00	792.66
1266.00	769.26
1267.00	759.89
1268.00	750.53
1269.00	782.52
1270.00	778.62
1271.00	791.88
1272.00	777.84
1273.00	788.76
1274.00	826.21
1275.00	1233.46
1276.00	3030.21
1277.00	7193.25
1278.00	14601.04
1279.00	22819.44
1280.00	28453.11
1281.00	28506.94
1282.00	24285.40
1283.00	17845.02
1284.00	11685.51
1285.00	6715.00
1286.00	3680.10
1287.00	2135.35
1288.00	1370.77
1289.00	1033.74
1290.00	910.47
1291.00	882.38
1292.00	890.18
1293.00	872.24
1294.00	883.16
1295.00	1078.21
1296.00	1730.44
1297.00	2963.90
1298.00	4615.54
1299.00	6118.16
1300.00	6774.29
1301.00	6293.70
1302.00	5048.54
1303.00	3598.18
1304.00	2431.04
1305.00	1603.27
1306.00	1182.75
1307.00	970.54
1308.00	874.58
1309.00	791.88
1310.00	755.99
1311.00	738.83
1312.00	701.38
1313.00	635.85
1314.00	586.69
1315.00	594.50
1316.00	611.66
1317.00	598.40
1318.00	566.41
1319.00	559.39
1320.00	560.17
1321.00	560.17
1322.00	536.76
1323.00	563.29
1324.00	582.01
1325.00	599.18
1326.00	575.77
1327.00	571.87
1328.00	571.87
1329.00	653.01
1330.00	981.46
1331.00	1870.87
1332.00	3500.66
1333.00	5478.41
1334.00	7040.33
1335.00	7375.81
1336.00	6654.92
1337.00	5245.14
1338.00	3751.10
1339.00	2486.43
1340.00	1593.90
1341.00	1108.63
1342.00	811.39
1343.00	686.56
1344.00	634.29
1345.00	614.78
1346.00	597.62
1347.00	606.20
1348.00	653.01
1349.00	678.76
1350.00	668.61
1351.00	636.63
1352.00	644.43
1353.00	674.85
1354.00	712.30
1355.00	718.54
1356.00	743.51
1357.00	833.23
1358.00	1444.11
1359.00	3516.26
1360.00	7808.03
1361.00	14161.80
1362.00	20333.01
1363.00	23712.75
1364.00	22728.16
1365.00	18819.47
1366.00	13508.79
1367.00	8806.66
1368.00	5120.31
1369.00	3016.17
1370.00	1944.20
1371.00	1497.94
1372.00	2139.25
1373.00	5413.66
1374.00	12780.11
1375.00	24187.10
1376.00	35548.06
1377.00	42069.57
1378.00	40900.08
1379.00	34267.78
1380.00	24868.97
1381.00	16090.40
1382.00	9035.25
1383.00	4846.47
1384.00	2665.09
1385.00	1641.50
1386.00	1166.37
1387.00	923.73
1388.00	820.75
1389.00	827.77
1390.00	830.89
1391.00	815.29
1392.00	799.68
1393.00	810.61
1394.00	928.41
1395.00	1107.85
1396.00	1391.84
1397.00	1636.81
1398.00	1801.43
1399.00	1837.32
1400.00	1810.01
1401.00	1753.06
1402.00	2243.01
1403.00	5729.63
1404.00	14799.99
1405.00	30717.19
1406.00	46525.95
1407.00	57158.22
1408.00	58831.71
1409.00	54518.88
1410.00	44634.80
1411.00	31473.96
1412.00	18757.05
1413.00	9902.03
1414.00	5250.60
1415.00	3048.16
1416.00	2443.52
1417.00	3568.54
1418.00	6514.49
1419.00	11127.69
1420.00	15363.28
1421.00	17441.67
1422.00	16397.01
1423.00	13435.46
1424.00	9661.73
1425.00	6296.82
1426.00	3680.88
1427.00	2217.27
1428.00	1437.09
1429.00	1082.89
1430.00	951.04
1431.00	869.12
1432.00	850.39
1433.00	801.24
1434.00	783.30
1435.00	752.09
1436.00	725.57
1437.00	706.84
1438.00	668.61
1439.00	667.05
1440.00	649.89
1441.00	654.57
1442.00	618.68
1443.00	621.80
1444.00	597.62
1445.00	614.78
1446.00	602.30
1447.00	628.82
1448.00	664.71
1449.00	676.41
1450.00	713.08
1451.00	944.80
1452.00	1861.51
1453.00	3670.74
1454.00	6276.54
1455.00	8746.58
1456.00	10106.43
1457.00	9871.60
1458.00	8464.94
1459.00	6376.40
1460.00	4347.94
1461.00	2635.44
1462.00	1639.16
1463.00	1106.29
1464.00	862.88
1465.00	752.87
1466.00	682.66
1467.00	657.69
1468.00	626.48
1469.00	608.54
1470.00	592.94
1471.00	585.91
1472.00	577.33
1473.00	600.74
1474.00	623.36
1475.00	653.79
1476.00	628.04
1477.00	632.72
1478.00	648.33
1479.00	672.51
1480.00	700.60
1481.00	743.51
1482.00	840.25
1483.00	1245.95
1484.00	3142.56
1485.00	7680.08
1486.00	15752.59
1487.00	25500.14
1488.00	33150.57
1489.00	35213.36
1490.00	31687.73
1491.00	24966.49
1492.00	17444.01
1493.00	10737.60
1494.00	5864.60
1495.00	3154.26
1496.00	1834.98
1497.00	1209.28
1498.00	900.33
1499.00	766.92
1500.00	684.22
1501.00	645.21
1502.00	611.66
1503.00	631.94
1504.00	621.02
1505.00	624.92
1506.00	629.60
1507.00	632.72
1508.00	688.12
1509.00	959.62
1510.00	1800.65
1511.00	3272.85
1512.00	5528.35
1513.00	7560.71
1514.00	8783.25
1515.00	8447.77
1516.00	7207.29
1517.00	5473.73
1518.00	3815.07
1519.00	2469.27
1520.00	1597.81
1521.00	1128.14
1522.00	883.94
1523.00	767.70
1524.00	701.38
1525.00	730.25
1526.00	769.26
1527.00	851.17
1528.00	1071.19
1529.00	2058.89
1530.00	4644.40
1531.00	9424.56
1532.00	15810.32
1533.00	21367.53
1534.00	23663.60
1535.00	21983.09
1536.00	17910.56
1537.00	12957.99
1538.00	8465.72
1539.00	4925.27
1540.00	2835.17
1541.00	1710.93
1542.00	1185.87
1543.00	916.71
1544.00	780.96
1545.00	713.86
1546.00	712.30
1547.00	748.19
1548.00	716.98
1549.00	692.80
1550.00	693.58
1551.00	720.89
1552.00	704.50
1553.00	705.28
1554.00	717.76
1555.00	761.45
1556.00	763.01
1557.00	768.48
1558.00	788.76
1559.00	865.22
1560.00	988.49
1561.00	1748.38
1562.00	4635.82
1563.00	11190.88
1564.00	21912.10
1565.00	33716.98
1566.00	42101.56
1567.00	43536.30
1568.00	39063.54
1569.00	30820.17
1570.00	21703.01
1571.00	13380.06
1572.00	7584.90
1573.00	4429.07
1574.00	3885.29
1575.00	7578.65
1576.00	17219.32
1577.00	32779.20
1578.00	47610.40
1579.00	56960.84
1580.00	58180.26
1581.00	54151.41
1582.00	45130.99
1583.00	32935.24
1584.00	20360.32
1585.00	11162.01
1586.00	5844.32
1587.00	3203.41
1588.00	1927.82
1589.00	1315.38
1590.00	1085.23
1591.00	948.70
1592.00	890.18
1593.00	805.92
1594.00	747.41
1595.00	676.41
1596.00	643.65
1597.00	645.99
1598.00	649.11
1599.00	653.01
1600.00	617.12
1601.00	594.50
1602.00	567.97
1603.00	564.07
1604.00	563.29
1605.00	581.23
1606.00	610.88
1607.00	621.80
1608.00	596.06
1609.00	565.63
1610.00	550.03
1611.00	531.30
1612.00	518.04
1613.00	531.30
1614.00	568.75
1615.00	572.65
1616.00	564.85
1617.00	551.59
1618.00	574.21
1619.00	574.21
1620.00	584.35
1621.00	592.94
1622.00	592.16
1623.00	603.86
1624.00	584.35
1625.00	600.74
1626.00	589.03
1627.00	585.91
1628.00	579.67
1629.00	571.09
1630.00	585.91
1631.00	588.25
1632.00	564.07
1633.00	543.00
1634.00	534.42
1635.00	574.21
1636.00	584.35
1637.00	581.23
1638.00	574.99
1639.00	621.02
1640.00	667.83
1641.00	681.10
1642.00	658.47
1643.00	698.26
1644.00	776.28
1645.00	1345.81
1646.00	3432.01
1647.00	8063.93
1648.00	15928.13
1649.00	24992.24
1650.00	32314.22
1651.00	34646.17
1652.00	32014.63
1653.00	26121.16
1654.00	18913.87
1655.00	12219.16
1656.00	7041.11
1657.00	3958.63
1658.00	2275.78
1659.00	1411.34
1660.00	981.46
1661.00	811.39
1662.00	756.77
1663.00	877.70
1664.00	1476.88
1665.00	2929.57
1666.00	5407.42
1667.00	8534.37
1668.00	11096.48
1669.00	12180.15
1670.00	11481.11
1671.00	9729.61
1672.00	7382.83
1673.00	5073.50
1674.00	3111.35
1675.00	1907.54
1676.00	1213.18
1677.00	891.74
1678.00	709.18
1679.00	627.26
1680.00	569.53
1681.00	529.74
1682.00	513.36
1683.00	504.78
1684.00	482.93
1685.00	490.73
1686.00	486.05
1687.00	503.22
1688.00	496.19
1689.00	518.04
1690.00	524.28
1691.00	553.15
1692.00	532.86
1693.00	509.46
1694.00	468.89
1695.00	463.43
1696.00	482.93
1697.00	513.36
1698.00	562.51
1699.00	582.79
1700.00	577.33
1701.00	551.59
1702.00	543.00
1703.00	564.07
1704.00	569.53
1705.00	549.25
1706.00	532.08
1707.00	537.54
1708.00	642.87
1709.00	890.96
1710.00	1892.71
1711.00	4040.54
1712.00	7683.98
1713.00	12021.77
1714.00	15629.32
1715.00	17043.00
1716.00	16040.47
1717.00	13450.28
1718.00	10161.05
1719.00	6901.46
1720.00	4228.57
1721.00	2494.23
1722.00	1541.63
1723.00	1056.36
1724.00	793.44
1725.00	662.37
1726.00	572.65
1727.00	557.05
1728.00	542.22
1729.00	536.76
1730.00	518.04
1731.00	517.26
1732.00	482.93
1733.00	464.21
1734.00	470.45
1735.00	514.14
1736.00	545.34
1737.00	541.44
1738.00	525.06
1739.00	503.22
1740.00	495.41
1741.00	508.68
1742.00	513.36
1743.00	518.82
1744.00	510.24
1745.00	528.18
1746.00	534.42
1747.00	532.08
1748.00	518.82
1749.00	542.22
1750.00	553.15
1751.00	590.60
1752.00	578.11
1753.00	606.20
1754.00	609.32
1755.00	634.29
1756.00	623.36
1757.00	589.03
1758.00	597.62
1759.00	610.10
1760.00	620.24
1761.00	620.24
1762.00	637.41
1763.00	683.44
1764.00	789.54
1765.00	1486.24
1766.00	3751.88
1767.00	8142.72
1768.00	15027.80
1769.00	22742.99
1770.00	28680.14
1771.00	30304.48
1772.00	27711.16
1773.00	22509.71
1774.00	16506.24
1775.00	10872.57
1776.00	6569.10
1777.00	3812.73
1778.00	2269.54
1779.00	1451.13
1780.00	1043.88
1781.00	819.19
1782.00	720.88
1783.00	660.81
1784.00	648.33
1785.00	599.18
1786.00	576.55
1787.00	582.79
1788.00	579.67
1789.00	596.84
1790.00	593.72
1791.00	638.19
1792.00	822.31
1793.00	1551.00
1794.00	3500.66
1795.00	6838.27
1796.00	11572.39
1797.00	15890.68
1798.00	18472.29
1799.00	18192.20
1800.00	15989.76
1801.00	12518.75
1802.00	8900.28
1803.00	5636.01
1804.00	3421.08
1805.00	2026.12
1806.00	1292.76
1807.00	897.99
1808.00	724.01
1809.00	607.76
1810.00	567.97
1811.00	539.88
1812.00	553.15
1813.00	543.78
1814.00	529.74
1815.00	515.70
1816.00	501.65
1817.00	508.68
1818.00	517.26
1819.00	511.80
1820.00	535.98
1821.00	544.56
1822.00	628.04
1823.00	654.57
1824.00	685.00
1825.00	671.73
1826.00	681.88
1827.00	646.77
1828.00	598.40
1829.00	543.00
1830.00	518.82
1831.00	507.90
1832.00	498.53
1833.00	495.41
1834.00	471.23
1835.00	450.94
1836.00	434.56
1837.00	447.04
1838.00	471.23
1839.00	477.47
1840.00	482.15
1841.00	464.99
1842.00	457.18
1843.00	468.89
1844.00	468.89
1845.00	480.59
1846.00	451.72
1847.00	469.67
1848.00	449.38
1849.00	474.35
1850.00	468.89
1851.00	498.53
1852.00	502.43
1853.00	510.24
1854.00	486.83
1855.00	472.01
1856.00	446.26
1857.00	438.46
1858.00	422.86
1859.00	425.98
1860.00	444.70
1861.00	468.11
1862.00	449.38
1863.00	456.40
1864.00	447.82
1865.00	471.23
1866.00	455.62
1867.00	457.96
1868.00	471.23
1869.00	493.85
1870.00	469.67
1871.00	464.21
1872.00	444.70
1873.00	470.45
1874.00	447.82
1875.00	459.53
1876.00	463.43
1877.00	478.25
1878.00	449.38
1879.00	439.24
1880.00	436.90
1881.00	457.18
1882.00	471.23
1883.00	487.61
1884.00	484.49
1885.00	475.91
1886.00	448.60
1887.00	469.67
1888.00	451.72
1889.00	459.53
1890.00	435.34
1891.00	456.40
1892.00	440.80
1893.00	434.56
1894.00	414.27
1895.00	420.52
1896.00	433.00
1897.00	426.76
1898.00	438.46
1899.00	433.00
1900.00	474.35
1901.00	485.27
1902.00	496.97
1903.00	484.49
1904.00	461.87
1905.00	478.25
1906.00	503.22
1907.00	553.15
1908.00	623.36
1909.00	660.03
1910.00	688.12
1911.00	635.85
1912.00	598.40
1913.00	565.63
1914.00	549.25
1915.00	535.98
1916.00	499.31
1917.00	467.33
1918.00	464.99
1919.00	438.46
1920.00	443.92
1921.00	414.27
1922.00	457.18
1923.00	463.43
1924.00	475.91
1925.00	457.18
1926.00	443.92
1927.00	444.70
1928.00	450.94
1929.00	458.74
1930.00	461.09
1931.00	467.33
1932.00	479.03
1933.00	475.13
1934.00	469.67
1935.00	483.71
1936.00	475.91
1937.00	480.59
1938.00	464.21
1939.00	465.77
1940.00	463.43
1941.00	472.79
1942.00	493.85
1943.00	495.41
1944.00	494.63
1945.00	530.52
1946.00	635.85
1947.00	998.63
1948.00	2059.67
1949.00	4038.98
1950.00	7077.78
1951.00	10493.40
1952.00	13419.07
1953.00	14463.73
1954.00	13763.91
1955.00	11766.65
1956.00	9309.09
1957.00	6838.27
1958.00	4677.17
1959.00	3203.41
1960.00	2130.67
1961.00	1430.07
1962.00	1015.79
1963.00	805.92
1964.00	692.02
1965.00	617.12
1966.00	564.07
1967.00	546.91
1968.00	545.34
1969.00	537.54
1970.00	527.40
1971.00	522.72
1972.00	514.92
1973.00	539.10
1974.00	548.47
1975.00	624.92
1976.00	726.35
1977.00	902.67
1978.00	1096.15
1979.00	1234.24
1980.00	1288.07
1981.00	1244.38
1982.00	1135.94
1983.00	991.61
1984.00	852.74
1985.00	731.03
1986.00	618.68
1987.00	562.51
1988.00	540.66
1989.00	528.18
1990.00	500.87
1991.00	487.61
1992.00	463.43
1993.00	475.13
1994.00	461.87
1995.00	520.38
1996.00	500.09
1997.00	514.14
1998.00	504.00
1999.00	518.82
2000.00	518.82
2001.00	520.38
2002.00	541.44
2003.00	536.76
2004.00	510.24
2005.00	454.84
2006.00	461.09
2007.00	455.62
2008.00	499.31
2009.00	495.41
2010.00	524.28
2011.00	521.94
2012.00	512.58
2013.00	512.58
2014.00	520.38
2015.00	534.42
2016.00	528.96
2017.00	525.84
2018.00	557.83
2019.00	628.82
2020.00	761.45
2021.00	952.60
2022.00	1157.00
2023.00	1371.55
2024.00	1925.48
2025.00	3513.92
2026.00	6678.33
2027.00	11781.48
2028.00	18457.46
2029.00	25051.53
2030.00	29436.14
2031.00	30011.13
2032.00	27785.28
2033.00	23688.56
2034.00	18895.92
2035.00	13868.45
2036.00	9583.71
2037.00	6292.92
2038.00	4008.56
2039.00	2437.28
2040.00	1614.97
2041.00	1177.29
2042.00	945.58
2043.00	792.66
2044.00	698.26
2045.00	642.09
2046.00	616.34
2047.00	615.56
>>>>>End Processed Spectral Data<<<<<
