SpectraSuite Data File
++++++++++++++++++++++++++++++++++++
Date: Thu Nov 16 13:55:16 EST 2017
User: cheriyan
Dark Spectrum Present: No
Reference Spectrum Present: No
Number of Sampled Component Spectra: 1
Spectrometers: USB2+H05261
Integration Time (usec): 100000 (USB2+H05261)
Spectra Averaged: 1 (USB2+H05261)
Boxcar Smoothing: 1 (USB2+H05261)
Correct for Electrical Dark: No (USB2+H05261)
Strobe/Lamp Enabled: No (USB2+H05261)
Correct for Detector Non-linearity: No (USB2+H05261)
Correct for Stray Light: No (USB2+H05261)
Number of Pixels in Processed Spectrum: 2048
>>>>>Begin Processed Spectral Data<<<<<
0.00	332.36
1.00	332.36
2.00	329.24
3.00	303.49
4.00	292.57
5.00	262.92
6.00	267.60
7.00	259.02
8.00	248.10
9.00	228.59
10.00	208.31
11.00	217.67
12.00	218.45
13.00	216.89
14.00	203.63
15.00	227.03
16.00	247.32
17.00	262.14
18.00	250.44
19.00	249.66
20.00	269.16
21.00	301.93
22.00	340.16
23.00	344.06
24.00	325.33
25.00	296.47
26.00	312.85
27.00	357.32
28.00	354.98
29.00	379.17
30.00	364.34
31.00	391.65
32.00	374.49
33.00	395.55
34.00	397.89
35.00	397.11
36.00	384.63
37.00	368.24
38.00	372.93
39.00	361.22
40.00	384.63
41.00	410.37
42.00	425.20
43.00	440.02
44.00	445.48
45.00	454.06
46.00	449.38
47.00	437.68
48.00	435.34
49.00	428.32
50.00	420.52
51.00	429.10
52.00	443.92
53.00	432.22
54.00	403.35
55.00	383.85
56.00	387.75
57.00	390.87
58.00	388.53
59.00	390.09
60.00	402.57
61.00	393.99
62.00	417.40
63.00	420.52
64.00	432.22
65.00	404.13
66.00	415.06
67.00	411.93
68.00	443.14
69.00	433.00
70.00	442.36
71.00	423.64
72.00	423.64
73.00	403.35
74.00	379.17
75.00	358.10
76.00	337.04
77.00	346.40
78.00	374.49
79.00	411.15
80.00	456.40
81.00	462.65
82.00	447.82
83.00	422.86
84.00	384.63
85.00	402.57
86.00	379.17
87.00	386.97
88.00	408.81
89.00	425.98
90.00	432.22
91.00	422.86
92.00	423.64
93.00	410.37
94.00	402.57
95.00	403.35
96.00	427.54
97.00	429.88
98.00	436.90
99.00	423.64
100.00	436.90
101.00	411.93
102.00	409.59
103.00	385.41
104.00	376.05
105.00	358.10
106.00	351.08
107.00	368.24
108.00	390.87
109.00	413.49
110.00	424.42
111.00	438.46
112.00	422.86
113.00	423.64
114.00	402.57
115.00	403.35
116.00	404.13
117.00	415.06
118.00	415.84
119.00	413.49
120.00	418.18
121.00	429.88
122.00	417.40
123.00	406.47
124.00	412.71
125.00	423.64
126.00	422.08
127.00	389.31
128.00	389.31
129.00	405.69
130.00	423.64
131.00	414.27
132.00	401.01
133.00	431.44
134.00	436.12
135.00	449.38
136.00	424.42
137.00	421.30
138.00	416.62
139.00	403.35
140.00	404.13
141.00	380.73
142.00	398.67
143.00	396.33
144.00	424.42
145.00	463.43
146.00	497.75
147.00	518.82
148.00	491.51
149.00	472.01
150.00	436.12
151.00	399.45
152.00	415.84
153.00	418.18
154.00	473.57
155.00	450.94
156.00	478.25
157.00	427.54
158.00	438.46
159.00	423.64
160.00	428.32
161.00	402.57
162.00	365.12
163.00	376.05
164.00	399.45
165.00	433.00
166.00	436.12
167.00	407.25
168.00	411.15
169.00	404.13
170.00	421.30
171.00	445.48
172.00	453.28
173.00	463.43
174.00	431.44
175.00	422.08
176.00	406.47
177.00	395.55
178.00	397.11
179.00	402.57
180.00	405.69
181.00	418.18
182.00	417.40
183.00	449.38
184.00	440.80
185.00	467.33
186.00	428.32
187.00	418.18
188.00	386.19
189.00	376.83
190.00	411.15
191.00	398.67
192.00	418.18
193.00	418.18
194.00	472.79
195.00	521.94
196.00	549.25
197.00	532.08
198.00	499.31
199.00	460.31
200.00	442.36
201.00	461.09
202.00	467.33
203.00	447.82
204.00	396.33
205.00	377.61
206.00	401.01
207.00	405.69
208.00	406.47
209.00	414.27
210.00	437.68
211.00	429.88
212.00	406.47
213.00	402.57
214.00	391.65
215.00	435.34
216.00	433.78
217.00	433.78
218.00	418.18
219.00	431.44
220.00	462.65
221.00	468.89
222.00	462.65
223.00	447.82
224.00	431.44
225.00	425.98
226.00	431.44
227.00	421.30
228.00	415.06
229.00	416.62
230.00	410.37
231.00	416.62
232.00	408.81
233.00	412.71
234.00	420.52
235.00	411.93
236.00	415.06
237.00	393.21
238.00	387.75
239.00	391.65
240.00	396.33
241.00	394.77
242.00	384.63
243.00	378.39
244.00	392.43
245.00	397.89
246.00	417.40
247.00	428.32
248.00	429.10
249.00	431.44
250.00	418.96
251.00	408.03
252.00	398.67
253.00	402.57
254.00	428.32
255.00	476.69
256.00	482.93
257.00	470.45
258.00	440.80
259.00	447.82
260.00	463.43
261.00	440.02
262.00	426.76
263.00	415.84
264.00	443.92
265.00	476.69
266.00	498.53
267.00	547.69
268.00	576.55
269.00	581.23
270.00	567.19
271.00	544.56
272.00	589.81
273.00	592.16
274.00	606.98
275.00	560.17
276.00	554.71
277.00	546.91
278.00	571.87
279.00	561.73
280.00	532.86
281.00	490.73
282.00	440.80
283.00	404.13
284.00	374.49
285.00	401.01
286.00	411.93
287.00	434.56
288.00	418.18
289.00	443.14
290.00	442.36
291.00	425.20
292.00	412.71
293.00	410.37
294.00	409.59
295.00	390.87
296.00	376.05
297.00	387.75
298.00	398.67
299.00	407.25
300.00	420.52
301.00	410.37
302.00	397.11
303.00	397.89
304.00	393.99
305.00	440.80
306.00	474.35
307.00	545.34
308.00	610.88
309.00	626.48
310.00	630.38
311.00	571.09
312.00	528.96
313.00	472.79
314.00	427.54
315.00	429.10
316.00	446.26
317.00	464.99
318.00	454.84
319.00	443.14
320.00	450.16
321.00	445.48
322.00	434.56
323.00	412.71
324.00	418.18
325.00	425.98
326.00	445.48
327.00	429.10
328.00	436.90
329.00	425.98
330.00	454.84
331.00	445.48
332.00	436.12
333.00	404.13
334.00	406.47
335.00	427.54
336.00	440.80
337.00	432.22
338.00	419.74
339.00	429.10
340.00	443.92
341.00	468.11
342.00	439.24
343.00	440.80
344.00	406.47
345.00	441.58
346.00	518.04
347.00	624.14
348.00	709.18
349.00	716.98
350.00	689.68
351.00	650.67
352.00	576.55
353.00	538.32
354.00	511.02
355.00	525.84
356.00	488.39
357.00	459.53
358.00	415.06
359.00	415.84
360.00	415.84
361.00	426.76
362.00	438.46
363.00	429.10
364.00	408.81
365.00	399.45
366.00	396.33
367.00	387.75
368.00	419.74
369.00	437.68
370.00	461.09
371.00	445.48
372.00	418.18
373.00	415.84
374.00	379.17
375.00	383.85
376.00	384.63
377.00	408.81
378.00	411.93
379.00	429.10
380.00	429.88
381.00	436.12
382.00	406.47
383.00	402.57
384.00	397.89
385.00	440.02
386.00	420.52
387.00	401.01
388.00	379.95
389.00	399.45
390.00	420.52
391.00	398.67
392.00	399.45
393.00	404.91
394.00	415.06
395.00	443.92
396.00	429.10
397.00	430.66
398.00	397.11
399.00	406.47
400.00	418.18
401.00	417.40
402.00	416.62
403.00	415.06
404.00	425.98
405.00	425.20
406.00	429.10
407.00	423.64
408.00	417.40
409.00	437.68
410.00	432.22
411.00	447.82
412.00	424.42
413.00	414.27
414.00	406.47
415.00	393.99
416.00	418.96
417.00	397.89
418.00	401.01
419.00	399.45
420.00	422.86
421.00	408.03
422.00	397.11
423.00	393.99
424.00	404.91
425.00	426.76
426.00	448.60
427.00	436.90
428.00	429.10
429.00	413.49
430.00	430.66
431.00	414.27
432.00	402.57
433.00	389.31
434.00	392.43
435.00	393.99
436.00	437.68
437.00	443.92
438.00	440.02
439.00	414.27
440.00	421.30
441.00	450.16
442.00	482.93
443.00	485.27
444.00	484.49
445.00	455.62
446.00	463.43
447.00	447.82
448.00	451.72
449.00	440.02
450.00	424.42
451.00	408.03
452.00	410.37
453.00	429.10
454.00	429.10
455.00	426.76
456.00	429.88
457.00	421.30
458.00	411.93
459.00	393.21
460.00	415.84
461.00	392.43
462.00	386.19
463.00	374.49
464.00	380.73
465.00	401.01
466.00	415.06
467.00	425.98
468.00	422.86
469.00	414.27
470.00	393.21
471.00	396.33
472.00	383.07
473.00	412.71
474.00	407.25
475.00	409.59
476.00	421.30
477.00	424.42
478.00	422.86
479.00	418.96
480.00	416.62
481.00	439.24
482.00	451.72
483.00	446.26
484.00	444.70
485.00	407.25
486.00	396.33
487.00	356.54
488.00	386.97
489.00	416.62
490.00	468.89
491.00	468.11
492.00	459.53
493.00	442.36
494.00	447.82
495.00	430.66
496.00	419.74
497.00	422.86
498.00	425.98
499.00	433.00
500.00	408.03
501.00	412.71
502.00	390.09
503.00	382.29
504.00	386.19
505.00	395.55
506.00	431.44
507.00	436.90
508.00	462.65
509.00	416.62
510.00	408.81
511.00	386.97
512.00	399.45
513.00	400.23
514.00	403.35
515.00	415.84
516.00	414.27
517.00	414.27
518.00	432.22
519.00	438.46
520.00	425.20
521.00	425.20
522.00	429.88
523.00	447.82
524.00	420.52
525.00	403.35
526.00	418.18
527.00	411.93
528.00	436.12
529.00	421.30
530.00	446.26
531.00	446.26
532.00	458.75
533.00	451.72
534.00	427.54
535.00	415.06
536.00	422.08
537.00	416.62
538.00	408.81
539.00	413.49
540.00	438.46
541.00	443.14
542.00	452.50
543.00	443.14
544.00	442.36
545.00	388.53
546.00	383.85
547.00	422.08
548.00	470.45
549.00	493.85
550.00	482.15
551.00	462.65
552.00	459.53
553.00	450.16
554.00	460.31
555.00	475.13
556.00	471.23
557.00	468.89
558.00	430.66
559.00	422.86
560.00	393.21
561.00	393.21
562.00	388.53
563.00	415.84
564.00	438.46
565.00	432.22
566.00	423.64
567.00	408.03
568.00	391.65
569.00	380.73
570.00	362.00
571.00	376.05
572.00	401.79
573.00	431.44
574.00	430.66
575.00	413.49
576.00	417.40
577.00	429.88
578.00	446.26
579.00	443.14
580.00	452.50
581.00	404.91
582.00	386.97
583.00	360.44
584.00	386.19
585.00	400.23
586.00	398.67
587.00	404.91
588.00	400.23
589.00	415.06
590.00	420.52
591.00	415.06
592.00	416.62
593.00	405.69
594.00	404.13
595.00	408.03
596.00	423.64
597.00	430.66
598.00	417.40
599.00	414.27
600.00	436.90
601.00	427.54
602.00	430.66
603.00	416.62
604.00	437.68
605.00	416.62
606.00	425.20
607.00	409.59
608.00	399.45
609.00	388.53
610.00	415.84
611.00	465.77
612.00	451.72
613.00	408.81
614.00	369.80
615.00	370.58
616.00	401.01
617.00	422.86
618.00	418.18
619.00	440.02
620.00	430.66
621.00	461.87
622.00	450.16
623.00	445.48
624.00	422.86
625.00	408.03
626.00	411.93
627.00	395.55
628.00	386.19
629.00	401.79
630.00	420.52
631.00	440.80
632.00	427.54
633.00	431.44
634.00	437.68
635.00	426.76
636.00	431.44
637.00	422.86
638.00	443.92
639.00	441.58
640.00	452.50
641.00	454.06
642.00	446.26
643.00	442.36
644.00	436.90
645.00	426.76
646.00	414.27
647.00	417.40
648.00	410.37
649.00	423.64
650.00	406.47
651.00	429.88
652.00	450.94
653.00	461.09
654.00	512.58
655.00	478.25
656.00	499.31
657.00	433.00
658.00	417.40
659.00	404.91
660.00	425.20
661.00	469.67
662.00	454.84
663.00	468.89
664.00	454.84
665.00	461.87
666.00	441.58
667.00	424.42
668.00	396.33
669.00	390.09
670.00	379.95
671.00	393.21
672.00	408.03
673.00	426.76
674.00	479.81
675.00	462.65
676.00	450.16
677.00	411.93
678.00	437.68
679.00	461.87
680.00	467.33
681.00	464.21
682.00	451.72
683.00	435.34
684.00	397.89
685.00	393.99
686.00	390.09
687.00	399.45
688.00	397.11
689.00	393.99
690.00	396.33
691.00	400.23
692.00	419.74
693.00	410.37
694.00	423.64
695.00	418.18
696.00	443.92
697.00	422.08
698.00	434.56
699.00	428.32
700.00	461.87
701.00	457.96
702.00	450.94
703.00	428.32
704.00	422.86
705.00	437.68
706.00	434.56
707.00	424.42
708.00	402.57
709.00	415.84
710.00	447.04
711.00	461.87
712.00	454.06
713.00	413.49
714.00	415.06
715.00	438.46
716.00	479.03
717.00	480.59
718.00	518.04
719.00	504.00
720.00	532.86
721.00	451.72
722.00	437.68
723.00	412.71
724.00	426.76
725.00	448.60
726.00	417.40
727.00	418.18
728.00	364.34
729.00	406.47
730.00	401.79
731.00	430.66
732.00	420.52
733.00	453.28
734.00	496.97
735.00	517.26
736.00	514.92
737.00	504.78
738.00	505.56
739.00	500.09
740.00	491.51
741.00	479.81
742.00	465.77
743.00	475.13
744.00	489.95
745.00	493.07
746.00	455.62
747.00	442.36
748.00	433.00
749.00	429.88
750.00	418.96
751.00	436.90
752.00	464.21
753.00	433.78
754.00	438.46
755.00	405.69
756.00	421.30
757.00	396.33
758.00	429.10
759.00	450.16
760.00	502.43
761.00	507.12
762.00	489.17
763.00	434.56
764.00	427.54
765.00	443.92
766.00	453.28
767.00	464.99
768.00	448.60
769.00	436.12
770.00	403.35
771.00	401.01
772.00	429.10
773.00	444.70
774.00	443.92
775.00	420.52
776.00	429.10
777.00	445.48
778.00	457.96
779.00	500.09
780.00	532.86
781.00	591.38
782.00	568.75
783.00	628.82
784.00	591.38
785.00	572.65
786.00	457.18
787.00	411.15
788.00	407.25
789.00	409.59
790.00	420.52
791.00	403.35
792.00	405.69
793.00	372.93
794.00	394.77
795.00	396.33
796.00	444.70
797.00	464.99
798.00	491.51
799.00	511.02
800.00	502.44
801.00	456.40
802.00	424.42
803.00	414.27
804.00	458.75
805.00	468.89
806.00	457.18
807.00	439.24
808.00	445.48
809.00	448.60
810.00	454.84
811.00	429.10
812.00	414.27
813.00	404.91
814.00	408.03
815.00	399.45
816.00	402.57
817.00	403.35
818.00	425.98
819.00	421.30
820.00	440.02
821.00	480.59
822.00	511.02
823.00	523.50
824.00	477.47
825.00	464.21
826.00	457.18
827.00	461.09
828.00	461.87
829.00	457.18
830.00	476.69
831.00	472.79
832.00	474.35
833.00	461.87
834.00	456.40
835.00	473.57
836.00	482.15
837.00	472.01
838.00	447.82
839.00	420.52
840.00	433.00
841.00	429.10
842.00	454.84
843.00	462.65
844.00	489.17
845.00	479.81
846.00	480.59
847.00	453.28
848.00	445.48
849.00	430.66
850.00	449.38
851.00	457.18
852.00	449.38
853.00	424.42
854.00	415.84
855.00	429.88
856.00	454.06
857.00	429.10
858.00	421.30
859.00	392.43
860.00	447.04
861.00	447.04
862.00	463.43
863.00	449.38
864.00	454.84
865.00	439.24
866.00	438.46
867.00	451.72
868.00	488.39
869.00	441.58
870.00	410.37
871.00	395.55
872.00	423.64
873.00	452.50
874.00	423.64
875.00	434.56
876.00	422.08
877.00	444.70
878.00	455.62
879.00	437.68
880.00	421.30
881.00	394.77
882.00	407.25
883.00	413.49
884.00	450.16
885.00	448.60
886.00	454.06
887.00	445.48
888.00	445.48
889.00	463.43
890.00	447.04
891.00	444.70
892.00	445.48
893.00	475.91
894.00	484.49
895.00	457.18
896.00	436.90
897.00	449.38
898.00	456.40
899.00	450.94
900.00	436.12
901.00	442.36
902.00	461.09
903.00	518.04
904.00	642.09
905.00	761.45
906.00	823.09
907.00	791.88
908.00	735.71
909.00	1036.86
910.00	1058.70
911.00	1126.58
912.00	885.50
913.00	911.25
914.00	869.12
915.00	777.06
916.00	667.05
917.00	574.21
918.00	503.22
919.00	464.99
920.00	454.84
921.00	467.33
922.00	488.39
923.00	468.89
924.00	464.99
925.00	443.92
926.00	444.70
927.00	404.91
928.00	404.91
929.00	416.62
930.00	424.42
931.00	422.08
932.00	411.93
933.00	413.49
934.00	404.91
935.00	404.91
936.00	418.18
937.00	434.56
938.00	449.38
939.00	429.88
940.00	426.76
941.00	455.62
942.00	483.71
943.00	656.91
944.00	1078.21
945.00	1945.77
946.00	2932.69
947.00	3631.73
948.00	3667.62
949.00	3130.86
950.00	2332.73
951.00	1617.31
952.00	1075.09
953.00	745.85
954.00	565.63
955.00	491.51
956.00	477.47
957.00	459.53
958.00	465.77
959.00	463.43
960.00	471.23
961.00	443.92
962.00	422.08
963.00	415.84
964.00	446.26
965.00	468.89
966.00	493.07
967.00	468.11
968.00	471.23
969.00	452.50
970.00	460.31
971.00	442.36
972.00	425.98
973.00	418.96
974.00	398.67
975.00	393.21
976.00	409.59
977.00	397.89
978.00	399.45
979.00	388.53
980.00	424.42
981.00	414.27
982.00	425.98
983.00	430.66
984.00	444.70
985.00	438.46
986.00	441.58
987.00	457.96
988.00	468.11
989.00	458.75
990.00	436.90
991.00	411.15
992.00	413.49
993.00	406.47
994.00	441.58
995.00	445.48
996.00	461.87
997.00	426.76
998.00	433.78
999.00	452.50
1000.00	475.91
1001.00	464.99
1002.00	448.60
1003.00	451.72
1004.00	443.92
1005.00	429.88
1006.00	404.13
1007.00	425.20
1008.00	454.06
1009.00	476.69
1010.00	491.51
1011.00	504.00
1012.00	494.63
1013.00	475.91
1014.00	453.28
1015.00	454.06
1016.00	415.06
1017.00	418.96
1018.00	434.56
1019.00	470.45
1020.00	481.37
1021.00	454.06
1022.00	447.82
1023.00	424.42
1024.00	436.90
1025.00	433.00
1026.00	435.34
1027.00	455.62
1028.00	464.99
1029.00	453.28
1030.00	439.24
1031.00	407.25
1032.00	434.56
1033.00	438.46
1034.00	451.72
1035.00	448.60
1036.00	429.10
1037.00	443.14
1038.00	442.36
1039.00	455.62
1040.00	440.80
1041.00	437.68
1042.00	461.87
1043.00	487.61
1044.00	496.97
1045.00	531.30
1046.00	535.20
1047.00	532.08
1048.00	480.59
1049.00	458.75
1050.00	441.58
1051.00	428.32
1052.00	411.15
1053.00	443.14
1054.00	461.09
1055.00	480.59
1056.00	461.09
1057.00	457.18
1058.00	482.93
1059.00	472.01
1060.00	433.78
1061.00	426.76
1062.00	427.54
1063.00	462.65
1064.00	461.09
1065.00	453.28
1066.00	455.62
1067.00	460.31
1068.00	493.85
1069.00	479.03
1070.00	466.55
1071.00	471.23
1072.00	468.89
1073.00	472.01
1074.00	436.90
1075.00	433.78
1076.00	436.90
1077.00	440.80
1078.00	461.09
1079.00	457.18
1080.00	452.50
1081.00	417.40
1082.00	416.62
1083.00	435.34
1084.00	447.04
1085.00	437.68
1086.00	429.88
1087.00	454.06
1088.00	431.44
1089.00	431.44
1090.00	414.27
1091.00	446.26
1092.00	435.34
1093.00	444.70
1094.00	429.10
1095.00	454.06
1096.00	450.94
1097.00	458.75
1098.00	435.34
1099.00	480.59
1100.00	550.03
1101.00	605.42
1102.00	610.10
1103.00	580.45
1104.00	557.83
1105.00	532.86
1106.00	510.24
1107.00	491.51
1108.00	454.84
1109.00	446.26
1110.00	444.70
1111.00	436.90
1112.00	432.22
1113.00	427.54
1114.00	419.74
1115.00	426.76
1116.00	438.46
1117.00	483.71
1118.00	472.79
1119.00	479.03
1120.00	513.36
1121.00	532.86
1122.00	570.31
1123.00	514.92
1124.00	518.82
1125.00	474.35
1126.00	476.69
1127.00	461.09
1128.00	468.89
1129.00	480.59
1130.00	468.89
1131.00	443.92
1132.00	447.82
1133.00	465.77
1134.00	486.83
1135.00	461.09
1136.00	470.45
1137.00	491.51
1138.00	506.34
1139.00	545.34
1140.00	525.84
1141.00	550.03
1142.00	508.68
1143.00	507.12
1144.00	478.25
1145.00	448.60
1146.00	450.16
1147.00	474.35
1148.00	458.75
1149.00	451.72
1150.00	444.70
1151.00	464.99
1152.00	454.84
1153.00	459.53
1154.00	528.18
1155.00	619.46
1156.00	722.45
1157.00	767.70
1158.00	746.63
1159.00	674.07
1160.00	613.22
1161.00	575.77
1162.00	555.49
1163.00	605.42
1164.00	776.28
1165.00	1075.87
1166.00	1416.80
1167.00	1689.09
1168.00	1736.68
1169.00	1595.47
1170.00	1309.92
1171.00	1039.98
1172.00	834.79
1173.00	712.30
1174.00	646.77
1175.00	642.87
1176.00	620.24
1177.00	616.34
1178.00	571.87
1179.00	577.33
1180.00	579.67
1181.00	588.25
1182.00	629.60
1183.00	645.21
1184.00	670.95
1185.00	650.67
1186.00	680.32
1187.00	660.03
1188.00	682.66
1189.00	692.80
1190.00	761.45
1191.00	776.28
1192.00	838.69
1193.00	877.70
1194.00	910.47
1195.00	855.08
1196.00	795.78
1197.00	766.14
1198.00	842.59
1199.00	1011.11
1200.00	1249.07
1201.00	1431.63
1202.00	1520.57
1203.00	1497.94
1204.00	1397.30
1205.00	1275.59
1206.00	1171.05
1207.00	1133.60
1208.00	1125.80
1209.00	1139.84
1210.00	1195.23
1211.00	1219.42
1212.00	1320.06
1213.00	1435.53
1214.00	1701.57
1215.00	1983.21
1216.00	2507.49
1217.00	5680.48
1218.00	21165.46
1219.00	41943.18
1220.00	59941.12
1221.00	65535.00
1222.00	65535.00
1223.00	65535.00
1224.00	65535.00
1225.00	65361.02
1226.00	56155.69
1227.00	40491.27
1228.00	21784.93
1229.00	10672.84
1230.00	5442.53
1231.00	3180.01
1232.00	2238.33
1233.00	1864.63
1234.00	1691.43
1235.00	1661.00
1236.00	2104.14
1237.00	3740.18
1238.00	7079.34
1239.00	11609.84
1240.00	15254.83
1241.00	16338.50
1242.00	14567.49
1243.00	11291.52
1244.00	7753.41
1245.00	4835.55
1246.00	2837.51
1247.00	1795.19
1248.00	1223.32
1249.00	1000.97
1250.00	929.97
1251.00	991.61
1252.00	1091.47
1253.00	1193.67
1254.00	1295.88
1255.00	1267.01
1256.00	1222.54
1257.00	1102.39
1258.00	1014.23
1259.00	921.39
1260.00	858.20
1261.00	862.10
1262.00	861.32
1263.00	884.72
1264.00	846.49
1265.00	810.61
1266.00	760.67
1267.00	764.57
1268.00	766.14
1269.00	773.94
1270.00	770.82
1271.00	761.45
1272.00	779.40
1273.00	797.34
1274.00	863.66
1275.00	1245.16
1276.00	3023.97
1277.00	7204.95
1278.00	14623.67
1279.00	22959.10
1280.00	28676.24
1281.00	28819.80
1282.00	24480.44
1283.00	17834.88
1284.00	11605.16
1285.00	6627.62
1286.00	3676.98
1287.00	2093.22
1288.00	1334.89
1289.00	999.41
1290.00	872.24
1291.00	848.83
1292.00	896.43
1293.00	919.83
1294.00	936.21
1295.00	1078.99
1296.00	1695.33
1297.00	2947.51
1298.00	4775.47
1299.00	6336.61
1300.00	6920.96
1301.00	6342.07
1302.00	5089.10
1303.00	3676.98
1304.00	2470.05
1305.00	1626.67
1306.00	1182.75
1307.00	941.68
1308.00	847.27
1309.00	834.01
1310.00	823.09
1311.00	769.26
1312.00	692.02
1313.00	635.85
1314.00	596.84
1315.00	574.21
1316.00	543.00
1317.00	546.91
1318.00	587.47
1319.00	602.30
1320.00	594.50
1321.00	546.12
1322.00	540.66
1323.00	524.28
1324.00	530.52
1325.00	541.44
1326.00	564.07
1327.00	578.11
1328.00	599.96
1329.00	667.05
1330.00	1032.96
1331.00	1932.50
1332.00	3532.65
1333.00	5483.10
1334.00	6957.63
1335.00	7388.29
1336.00	6622.94
1337.00	5220.96
1338.00	3677.76
1339.00	2397.49
1340.00	1560.36
1341.00	1071.19
1342.00	819.97
1343.00	692.80
1344.00	645.99
1345.00	638.19
1346.00	631.94
1347.00	629.60
1348.00	645.21
1349.00	649.89
1350.00	663.15
1351.00	671.73
1352.00	703.72
1353.00	721.67
1354.00	716.98
1355.00	727.91
1356.00	771.60
1357.00	882.38
1358.00	1444.11
1359.00	3417.96
1360.00	7638.73
1361.00	14150.88
1362.00	20502.31
1363.00	24026.38
1364.00	22843.63
1365.00	18814.79
1366.00	13497.87
1367.00	8886.23
1368.00	5213.15
1369.00	3027.87
1370.00	1930.94
1371.00	1480.00
1372.00	2141.59
1373.00	5384.01
1374.00	12687.26
1375.00	24073.19
1376.00	35451.31
1377.00	41929.92
1378.00	40691.77
1379.00	34142.95
1380.00	24879.89
1381.00	16212.11
1382.00	9124.19
1383.00	4940.09
1384.00	2701.76
1385.00	1656.32
1386.00	1174.17
1387.00	955.72
1388.00	837.91
1389.00	818.41
1390.00	849.61
1391.00	847.27
1392.00	821.53
1393.00	822.31
1394.00	901.89
1395.00	1084.45
1396.00	1357.51
1397.00	1616.53
1398.00	1791.29
1399.00	1805.33
1400.00	1739.02
1401.00	1663.34
1402.00	2180.60
1403.00	5739.77
1404.00	14894.39
1405.00	30742.94
1406.00	46516.59
1407.00	57074.74
1408.00	58934.69
1409.00	54587.53
1410.00	44772.89
1411.00	31605.03
1412.00	18902.95
1413.00	10005.79
1414.00	5235.00
1415.00	3048.94
1416.00	2445.08
1417.00	3619.25
1418.00	6586.27
1419.00	11152.65
1420.00	15367.96
1421.00	17447.13
1422.00	16431.34
1423.00	13405.81
1424.00	9738.97
1425.00	6365.48
1426.00	3758.12
1427.00	2167.34
1428.00	1368.43
1429.00	1018.91
1430.00	880.04
1431.00	846.49
1432.00	832.45
1433.00	807.48
1434.00	780.18
1435.00	770.04
1436.00	731.03
1437.00	692.80
1438.00	681.88
1439.00	640.53
1440.00	634.29
1441.00	579.67
1442.00	606.98
1443.00	606.20
1444.00	610.88
1445.00	610.10
1446.00	589.82
1447.00	613.22
1448.00	618.68
1449.00	650.67
1450.00	709.96
1451.00	1008.77
1452.00	1868.53
1453.00	3633.29
1454.00	6250.79
1455.00	8718.50
1456.00	10072.89
1457.00	9753.01
1458.00	8414.23
1459.00	6417.75
1460.00	4397.87
1461.00	2676.79
1462.00	1629.01
1463.00	1111.75
1464.00	887.06
1465.00	746.63
1466.00	661.59
1467.00	617.12
1468.00	590.60
1469.00	614.78
1470.00	592.16
1471.00	622.58
1472.00	622.58
1473.00	602.30
1474.00	617.90
1475.00	621.02
1476.00	671.73
1477.00	674.07
1478.00	701.38
1479.00	678.76
1480.00	691.24
1481.00	700.60
1482.00	791.10
1483.00	1170.27
1484.00	3050.50
1485.00	7714.41
1486.00	15945.29
1487.00	25802.07
1488.00	33485.26
1489.00	35487.98
1490.00	31767.31
1491.00	24854.15
1492.00	17128.04
1493.00	10558.16
1494.00	5728.07
1495.00	3144.12
1496.00	1810.79
1497.00	1179.63
1498.00	878.48
1499.00	736.49
1500.00	695.92
1501.00	664.71
1502.00	662.37
1503.00	652.23
1504.00	636.63
1505.00	613.22
1506.00	617.12
1507.00	635.07
1508.00	689.68
1509.00	945.58
1510.00	1755.40
1511.00	3266.61
1512.00	5502.60
1513.00	7612.98
1514.00	8752.04
1515.00	8479.76
1516.00	7179.20
1517.00	5476.85
1518.00	3771.38
1519.00	2409.97
1520.00	1510.43
1521.00	1056.36
1522.00	826.99
1523.00	773.16
1524.00	707.62
1525.00	699.04
1526.00	713.08
1527.00	784.86
1528.00	1039.20
1529.00	2059.67
1530.00	4669.37
1531.00	9431.58
1532.00	15818.12
1533.00	21346.47
1534.00	23679.98
1535.00	22138.35
1536.00	18119.65
1537.00	13195.94
1538.00	8533.59
1539.00	4961.16
1540.00	2801.62
1541.00	1681.28
1542.00	1131.26
1543.00	887.06
1544.00	803.58
1545.00	742.73
1546.00	732.59
1547.00	723.23
1548.00	724.01
1549.00	720.88
1550.00	702.94
1551.00	710.74
1552.00	706.06
1553.00	741.17
1554.00	753.65
1555.00	763.79
1556.00	745.07
1557.00	801.24
1558.00	830.89
1559.00	908.91
1560.00	1010.33
1561.00	1712.49
1562.00	4527.38
1563.00	10984.13
1564.00	21752.16
1565.00	33614.77
1566.00	42048.50
1567.00	43420.84
1568.00	38955.10
1569.00	30767.12
1570.00	21717.05
1571.00	13414.39
1572.00	7602.84
1573.00	4437.66
1574.00	3853.30
1575.00	7702.70
1576.00	17332.45
1577.00	32943.04
1578.00	47665.79
1579.00	57091.91
1580.00	58337.85
1581.00	54188.08
1582.00	45162.98
1583.00	32855.66
1584.00	20340.04
1585.00	11115.98
1586.00	5856.02
1587.00	3224.48
1588.00	1939.52
1589.00	1362.97
1590.00	1089.91
1591.00	948.70
1592.00	870.68
1593.00	800.46
1594.00	742.73
1595.00	680.32
1596.00	663.93
1597.00	665.49
1598.00	650.67
1599.00	655.35
1600.00	621.80
1601.00	593.72
1602.00	564.85
1603.00	553.15
1604.00	543.78
1605.00	565.63
1606.00	597.62
1607.00	603.86
1608.00	574.21
1609.00	535.98
1610.00	569.53
1611.00	567.97
1612.00	562.51
1613.00	569.53
1614.00	587.47
1615.00	568.75
1616.00	535.98
1617.00	514.14
1618.00	552.37
1619.00	553.93
1620.00	592.16
1621.00	584.35
1622.00	597.62
1623.00	574.99
1624.00	614.78
1625.00	597.62
1626.00	612.44
1627.00	571.87
1628.00	594.50
1629.00	581.23
1630.00	593.72
1631.00	597.62
1632.00	597.62
1633.00	598.40
1634.00	599.96
1635.00	608.54
1636.00	619.46
1637.00	623.36
1638.00	628.04
1639.00	610.10
1640.00	598.40
1641.00	614.00
1642.00	649.11
1643.00	677.20
1644.00	752.09
1645.00	1295.88
1646.00	3411.72
1647.00	8120.10
1648.00	16183.24
1649.00	25384.67
1650.00	32790.91
1651.00	34689.08
1652.00	32056.76
1653.00	25971.36
1654.00	19027.00
1655.00	12169.23
1656.00	6995.86
1657.00	3926.64
1658.00	2285.14
1659.00	1418.36
1660.00	976.78
1661.00	819.19
1662.00	796.56
1663.00	867.56
1664.00	1437.09
1665.00	2826.59
1666.00	5302.87
1667.00	8415.01
1668.00	11134.71
1669.00	12276.11
1670.00	11575.51
1671.00	9719.46
1672.00	7357.86
1673.00	5082.08
1674.00	3126.18
1675.00	1907.54
1676.00	1227.22
1677.00	904.23
1678.00	704.50
1679.00	591.38
1680.00	553.93
1681.00	553.93
1682.00	566.41
1683.00	515.70
1684.00	509.46
1685.00	528.18
1686.00	568.75
1687.00	578.89
1688.00	543.78
1689.00	543.00
1690.00	536.76
1691.00	543.00
1692.00	508.68
1693.00	514.92
1694.00	507.12
1695.00	516.48
1696.00	496.97
1697.00	510.24
1698.00	540.66
1699.00	567.19
1700.00	558.61
1701.00	539.88
1702.00	538.32
1703.00	569.53
1704.00	580.45
1705.00	582.79
1706.00	606.20
1707.00	611.66
1708.00	643.65
1709.00	868.34
1710.00	1903.64
1711.00	4122.46
1712.00	7755.76
1713.00	12159.86
1714.00	15686.27
1715.00	17197.48
1716.00	16091.96
1717.00	13543.12
1718.00	10143.88
1719.00	6922.52
1720.00	4273.82
1721.00	2535.58
1722.00	1561.92
1723.00	1074.31
1724.00	827.77
1725.00	699.82
1726.00	593.72
1727.00	560.95
1728.00	511.02
1729.00	526.62
1730.00	532.08
1731.00	550.03
1732.00	521.16
1733.00	528.96
1734.00	529.74
1735.00	555.49
1736.00	555.49
1737.00	556.27
1738.00	514.14
1739.00	479.03
1740.00	484.49
1741.00	494.63
1742.00	493.07
1743.00	468.89
1744.00	482.93
1745.00	503.22
1746.00	524.28
1747.00	509.46
1748.00	526.62
1749.00	523.50
1750.00	529.74
1751.00	508.68
1752.00	535.20
1753.00	569.53
1754.00	609.32
1755.00	621.02
1756.00	589.81
1757.00	571.09
1758.00	557.83
1759.00	604.64
1760.00	603.08
1761.00	600.74
1762.00	617.12
1763.00	676.41
1764.00	805.14
1765.00	1513.55
1766.00	3732.37
1767.00	8111.52
1768.00	14999.71
1769.00	22681.35
1770.00	28685.61
1771.00	30206.17
1772.00	27823.51
1773.00	22685.25
1774.00	16783.20
1775.00	11026.26
1776.00	6604.99
1777.00	3820.53
1778.00	2241.45
1779.00	1442.55
1780.00	1029.06
1781.00	823.09
1782.00	706.84
1783.00	677.20
1784.00	645.99
1785.00	617.90
1786.00	580.45
1787.00	573.43
1788.00	541.44
1789.00	578.11
1790.00	599.96
1791.00	658.47
1792.00	807.48
1793.00	1577.52
1794.00	3459.31
1795.00	6737.62
1796.00	11395.29
1797.00	15878.19
1798.00	18568.25
1799.00	18340.44
1800.00	16041.25
1801.00	12521.87
1802.00	8911.98
1803.00	5671.12
1804.00	3455.41
1805.00	2024.56
1806.00	1252.19
1807.00	876.14
1808.00	704.50
1809.00	614.78
1810.00	568.75
1811.00	543.00
1812.00	537.54
1813.00	560.17
1814.00	571.09
1815.00	563.29
1816.00	532.08
1817.00	518.82
1818.00	509.46
1819.00	516.48
1820.00	535.20
1821.00	553.93
1822.00	617.12
1823.00	652.23
1824.00	663.93
1825.00	630.38
1826.00	616.34
1827.00	575.77
1828.00	548.47
1829.00	496.97
1830.00	496.19
1831.00	464.99
1832.00	464.21
1833.00	450.16
1834.00	464.21
1835.00	474.35
1836.00	497.75
1837.00	492.29
1838.00	494.63
1839.00	484.49
1840.00	472.01
1841.00	436.12
1842.00	429.10
1843.00	425.20
1844.00	426.76
1845.00	433.00
1846.00	436.12
1847.00	431.44
1848.00	391.65
1849.00	410.37
1850.00	408.81
1851.00	447.82
1852.00	458.75
1853.00	501.65
1854.00	474.35
1855.00	440.02
1856.00	419.74
1857.00	427.54
1858.00	432.22
1859.00	439.24
1860.00	469.67
1861.00	493.07
1862.00	484.49
1863.00	483.71
1864.00	472.01
1865.00	483.71
1866.00	460.31
1867.00	433.00
1868.00	403.35
1869.00	424.42
1870.00	450.16
1871.00	447.82
1872.00	419.74
1873.00	425.20
1874.00	441.58
1875.00	452.50
1876.00	421.30
1877.00	429.88
1878.00	453.28
1879.00	475.91
1880.00	464.99
1881.00	425.20
1882.00	440.02
1883.00	425.98
1884.00	440.02
1885.00	426.76
1886.00	459.53
1887.00	461.09
1888.00	432.22
1889.00	433.78
1890.00	411.15
1891.00	436.12
1892.00	442.36
1893.00	461.09
1894.00	467.33
1895.00	464.21
1896.00	474.35
1897.00	452.50
1898.00	436.90
1899.00	435.34
1900.00	436.90
1901.00	427.54
1902.00	417.40
1903.00	419.74
1904.00	447.04
1905.00	454.84
1906.00	482.15
1907.00	516.48
1908.00	601.52
1909.00	660.03
1910.00	630.38
1911.00	593.72
1912.00	534.42
1913.00	511.80
1914.00	477.47
1915.00	468.11
1916.00	486.05
1917.00	475.13
1918.00	479.03
1919.00	476.69
1920.00	498.53
1921.00	475.13
1922.00	480.59
1923.00	454.06
1924.00	471.23
1925.00	485.27
1926.00	489.95
1927.00	464.99
1928.00	436.12
1929.00	450.16
1930.00	484.49
1931.00	463.43
1932.00	448.60
1933.00	430.66
1934.00	469.67
1935.00	472.01
1936.00	494.63
1937.00	502.43
1938.00	501.65
1939.00	499.31
1940.00	493.07
1941.00	478.25
1942.00	481.37
1943.00	468.11
1944.00	498.53
1945.00	508.68
1946.00	580.45
1947.00	919.83
1948.00	1994.14
1949.00	4071.75
1950.00	7181.54
1951.00	10697.81
1952.00	13463.54
1953.00	14426.28
1954.00	13580.57
1955.00	11639.48
1956.00	9277.88
1957.00	6810.96
1958.00	4677.17
1959.00	3108.23
1960.00	2082.30
1961.00	1396.52
1962.00	1005.65
1963.00	767.70
1964.00	634.29
1965.00	554.71
1966.00	523.50
1967.00	505.56
1968.00	500.87
1969.00	507.90
1970.00	541.44
1971.00	528.96
1972.00	533.64
1973.00	509.46
1974.00	555.49
1975.00	642.87
1976.00	759.89
1977.00	921.39
1978.00	1098.49
1979.00	1217.08
1980.00	1239.70
1981.00	1182.75
1982.00	1110.19
1983.00	1022.03
1984.00	877.70
1985.00	766.14
1986.00	636.63
1987.00	575.77
1988.00	518.04
1989.00	492.29
1990.00	464.21
1991.00	441.58
1992.00	474.35
1993.00	499.31
1994.00	513.36
1995.00	472.01
1996.00	457.96
1997.00	468.11
1998.00	528.18
1999.00	518.04
2000.00	507.12
2001.00	479.81
2002.00	504.78
2003.00	512.58
2004.00	501.65
2005.00	489.17
2006.00	495.41
2007.00	518.04
2008.00	517.26
2009.00	524.28
2010.00	507.90
2011.00	540.66
2012.00	512.58
2013.00	511.02
2014.00	489.17
2015.00	514.92
2016.00	536.76
2017.00	556.27
2018.00	569.53
2019.00	623.36
2020.00	734.93
2021.00	905.79
2022.00	1112.53
2023.00	1364.53
2024.00	1904.42
2025.00	3438.25
2026.00	6685.35
2027.00	11905.52
2028.00	18707.90
2029.00	25225.51
2030.00	29618.70
2031.00	30132.06
2032.00	27923.37
2033.00	23780.62
2034.00	18940.40
2035.00	13894.98
2036.00	9504.14
2037.00	6263.27
2038.00	3917.28
2039.00	2429.48
2040.00	1548.65
2041.00	1106.29
2042.00	864.44
2043.00	738.83
2044.00	684.22
2045.00	657.69
2046.00	669.39
2047.00	669.39
>>>>>End Processed Spectral Data<<<<<
