SpectraSuite Data File
++++++++++++++++++++++++++++++++++++
Date: Thu Nov 16 13:55:17 EST 2017
User: cheriyan
Dark Spectrum Present: No
Reference Spectrum Present: No
Number of Sampled Component Spectra: 1
Spectrometers: USB2+H05261
Integration Time (usec): 100000 (USB2+H05261)
Spectra Averaged: 1 (USB2+H05261)
Boxcar Smoothing: 1 (USB2+H05261)
Correct for Electrical Dark: No (USB2+H05261)
Strobe/Lamp Enabled: No (USB2+H05261)
Correct for Detector Non-linearity: No (USB2+H05261)
Correct for Stray Light: No (USB2+H05261)
Number of Pixels in Processed Spectrum: 2048
>>>>>Begin Processed Spectral Data<<<<<
0.00	358.10
1.00	358.10
2.00	326.11
3.00	295.69
4.00	248.88
5.00	245.76
6.00	243.42
7.00	239.51
8.00	223.91
9.00	201.29
10.00	218.45
11.00	227.81
12.00	238.73
13.00	216.11
14.00	202.07
15.00	202.85
16.00	221.57
17.00	259.80
18.00	261.36
19.00	280.86
20.00	262.14
21.00	264.48
22.00	253.56
23.00	280.86
24.00	305.83
25.00	326.11
26.00	337.82
27.00	359.66
28.00	344.06
29.00	349.52
30.00	357.32
31.00	384.63
32.00	377.61
33.00	362.00
34.00	363.56
35.00	387.75
36.00	398.67
37.00	428.32
38.00	404.13
39.00	411.15
40.00	415.84
41.00	451.72
42.00	469.67
43.00	423.64
44.00	422.86
45.00	437.68
46.00	471.23
47.00	470.45
48.00	434.56
49.00	407.25
50.00	375.27
51.00	367.46
52.00	397.11
53.00	418.96
54.00	422.86
55.00	407.25
56.00	408.03
57.00	433.00
58.00	429.10
59.00	438.46
60.00	414.27
61.00	416.62
62.00	393.99
63.00	386.97
64.00	401.01
65.00	437.68
66.00	469.67
67.00	466.55
68.00	440.02
69.00	411.15
70.00	389.31
71.00	390.09
72.00	418.96
73.00	419.74
74.00	418.96
75.00	386.19
76.00	386.19
77.00	375.27
78.00	376.83
79.00	405.69
80.00	422.08
81.00	430.66
82.00	405.69
83.00	379.17
84.00	360.44
85.00	357.32
86.00	363.56
87.00	396.33
88.00	416.62
89.00	430.66
90.00	408.03
91.00	408.03
92.00	392.43
93.00	400.23
94.00	383.07
95.00	384.63
96.00	389.31
97.00	390.09
98.00	395.55
99.00	405.69
100.00	422.08
101.00	422.08
102.00	397.11
103.00	408.81
104.00	401.01
105.00	404.91
106.00	372.93
107.00	409.59
108.00	423.64
109.00	443.14
110.00	431.44
111.00	429.88
112.00	425.98
113.00	423.64
114.00	411.93
115.00	420.52
116.00	397.11
117.00	412.71
118.00	390.87
119.00	404.91
120.00	397.11
121.00	405.69
122.00	403.35
123.00	400.23
124.00	393.21
125.00	362.00
126.00	384.63
127.00	387.75
128.00	432.22
129.00	402.57
130.00	411.15
131.00	398.67
132.00	404.13
133.00	408.03
134.00	384.63
135.00	416.62
136.00	431.44
137.00	450.94
138.00	418.18
139.00	393.21
140.00	383.07
141.00	378.39
142.00	386.19
143.00	406.47
144.00	433.78
145.00	464.99
146.00	496.19
147.00	504.00
148.00	499.31
149.00	469.67
150.00	468.89
151.00	449.38
152.00	450.94
153.00	410.37
154.00	422.86
155.00	404.13
156.00	408.03
157.00	385.41
158.00	376.83
159.00	369.80
160.00	369.02
161.00	377.61
162.00	407.25
163.00	399.45
164.00	421.30
165.00	390.87
166.00	380.73
167.00	355.76
168.00	396.33
169.00	420.52
170.00	468.89
171.00	450.16
172.00	435.34
173.00	386.97
174.00	374.49
175.00	390.87
176.00	397.11
177.00	404.13
178.00	387.75
179.00	395.55
180.00	400.23
181.00	407.25
182.00	422.08
183.00	406.47
184.00	438.46
185.00	408.81
186.00	435.34
187.00	429.88
188.00	445.48
189.00	443.14
190.00	440.02
191.00	435.34
192.00	448.60
193.00	436.12
194.00	460.31
195.00	484.49
196.00	532.86
197.00	521.16
198.00	495.41
199.00	457.18
200.00	430.66
201.00	411.93
202.00	405.69
203.00	419.74
204.00	419.74
205.00	419.74
206.00	397.11
207.00	391.65
208.00	392.43
209.00	429.10
210.00	453.28
211.00	407.25
212.00	385.41
213.00	356.54
214.00	396.33
215.00	397.89
216.00	418.18
217.00	408.03
218.00	417.40
219.00	407.25
220.00	408.81
221.00	401.01
222.00	383.07
223.00	383.85
224.00	367.46
225.00	380.73
226.00	380.73
227.00	422.86
228.00	434.56
229.00	423.64
230.00	402.57
231.00	386.97
232.00	414.27
233.00	405.69
234.00	401.01
235.00	375.27
236.00	394.77
237.00	397.89
238.00	391.65
239.00	383.85
240.00	397.11
241.00	425.20
242.00	442.36
243.00	434.56
244.00	434.56
245.00	422.08
246.00	420.52
247.00	418.18
248.00	406.47
249.00	424.42
250.00	431.44
251.00	436.90
252.00	441.58
253.00	435.34
254.00	467.33
255.00	476.69
256.00	483.71
257.00	448.60
258.00	429.88
259.00	429.88
260.00	446.26
261.00	434.56
262.00	416.62
263.00	410.37
264.00	423.64
265.00	438.46
266.00	488.39
267.00	545.34
268.00	602.30
269.00	588.25
270.00	563.29
271.00	545.34
272.00	531.30
273.00	533.64
274.00	539.88
275.00	560.17
276.00	593.72
277.00	593.72
278.00	592.94
279.00	560.17
280.00	538.32
281.00	486.05
282.00	450.16
283.00	422.86
284.00	429.10
285.00	398.67
286.00	379.95
287.00	381.51
288.00	438.46
289.00	474.35
290.00	467.33
291.00	401.01
292.00	379.17
293.00	373.71
294.00	401.79
295.00	390.87
296.00	407.25
297.00	405.69
298.00	406.47
299.00	399.45
300.00	372.15
301.00	376.83
302.00	370.58
303.00	404.91
304.00	410.37
305.00	435.34
306.00	472.01
307.00	544.56
308.00	589.03
309.00	617.90
310.00	583.57
311.00	534.42
312.00	489.95
313.00	468.89
314.00	453.28
315.00	444.70
316.00	445.48
317.00	449.38
318.00	431.44
319.00	415.84
320.00	416.62
321.00	432.22
322.00	424.42
323.00	408.03
324.00	377.61
325.00	380.73
326.00	389.31
327.00	447.04
328.00	453.28
329.00	467.33
330.00	436.90
331.00	450.16
332.00	447.04
333.00	452.50
334.00	433.00
335.00	390.87
336.00	354.20
337.00	369.02
338.00	389.31
339.00	411.93
340.00	415.84
341.00	437.68
342.00	440.80
343.00	422.08
344.00	418.96
345.00	459.53
346.00	525.84
347.00	613.22
348.00	703.72
349.00	744.29
350.00	727.91
351.00	660.03
352.00	595.28
353.00	578.89
354.00	550.03
355.00	545.34
356.00	504.00
357.00	472.01
358.00	428.32
359.00	422.86
360.00	441.58
361.00	470.45
362.00	457.96
363.00	436.12
364.00	428.32
365.00	438.46
366.00	455.62
367.00	453.28
368.00	465.77
369.00	463.43
370.00	470.45
371.00	448.60
372.00	431.44
373.00	407.25
374.00	401.01
375.00	404.91
376.00	393.99
377.00	398.67
378.00	390.87
379.00	439.24
380.00	422.86
381.00	415.06
382.00	376.83
383.00	401.79
384.00	432.22
385.00	426.76
386.00	429.10
387.00	422.86
388.00	447.82
389.00	440.80
390.00	445.48
391.00	426.76
392.00	434.56
393.00	423.64
394.00	440.80
395.00	436.90
396.00	436.12
397.00	443.14
398.00	433.00
399.00	404.13
400.00	399.45
401.00	413.49
402.00	411.15
403.00	397.89
404.00	386.19
405.00	438.46
406.00	447.04
407.00	453.28
408.00	419.74
409.00	423.64
410.00	429.88
411.00	436.12
412.00	412.71
413.00	414.27
414.00	425.20
415.00	423.64
416.00	415.06
417.00	410.37
418.00	433.78
419.00	436.12
420.00	426.76
421.00	421.30
422.00	444.70
423.00	450.16
424.00	450.94
425.00	417.40
426.00	401.01
427.00	386.19
428.00	401.01
429.00	430.66
430.00	454.06
431.00	459.53
432.00	445.48
433.00	433.00
434.00	422.86
435.00	431.44
436.00	434.56
437.00	410.37
438.00	393.21
439.00	407.25
440.00	437.68
441.00	445.48
442.00	438.46
443.00	458.75
444.00	468.11
445.00	461.87
446.00	440.80
447.00	441.58
448.00	460.31
449.00	438.46
450.00	428.32
451.00	402.57
452.00	424.42
453.00	422.86
454.00	396.33
455.00	389.31
456.00	402.57
457.00	454.84
458.00	458.75
459.00	447.82
460.00	433.00
461.00	412.71
462.00	398.67
463.00	389.31
464.00	380.73
465.00	397.11
466.00	385.41
467.00	393.21
468.00	401.79
469.00	420.52
470.00	435.34
471.00	428.32
472.00	435.34
473.00	448.60
474.00	458.74
475.00	444.70
476.00	447.82
477.00	436.12
478.00	420.52
479.00	403.35
480.00	403.35
481.00	418.96
482.00	419.74
483.00	428.32
484.00	417.40
485.00	415.84
486.00	403.35
487.00	393.21
488.00	401.01
489.00	396.33
490.00	411.93
491.00	408.03
492.00	425.20
493.00	443.92
494.00	444.70
495.00	440.80
496.00	419.74
497.00	436.12
498.00	423.64
499.00	461.87
500.00	454.06
501.00	496.97
502.00	447.82
503.00	426.76
504.00	372.93
505.00	389.31
506.00	420.52
507.00	430.66
508.00	446.26
509.00	461.09
510.00	467.33
511.00	427.54
512.00	403.35
513.00	403.35
514.00	423.64
515.00	421.30
516.00	417.40
517.00	415.84
518.00	407.25
519.00	403.35
520.00	388.53
521.00	374.49
522.00	398.67
523.00	434.56
524.00	437.68
525.00	441.58
526.00	440.02
527.00	460.31
528.00	436.90
529.00	410.37
530.00	404.91
531.00	404.13
532.00	416.62
533.00	408.03
534.00	413.49
535.00	403.35
536.00	420.52
537.00	443.92
538.00	454.06
539.00	448.60
540.00	438.46
541.00	442.36
542.00	441.58
543.00	447.82
544.00	454.84
545.00	435.34
546.00	414.27
547.00	415.06
548.00	443.92
549.00	447.04
550.00	447.04
551.00	410.37
552.00	399.45
553.00	399.45
554.00	450.16
555.00	461.87
556.00	473.57
557.00	443.92
558.00	450.16
559.00	435.34
560.00	406.47
561.00	401.79
562.00	386.97
563.00	433.00
564.00	428.32
565.00	422.86
566.00	423.64
567.00	440.02
568.00	443.14
569.00	427.54
570.00	401.79
571.00	433.78
572.00	436.90
573.00	450.94
574.00	443.14
575.00	427.54
576.00	431.44
577.00	415.84
578.00	440.02
579.00	435.34
580.00	433.78
581.00	409.59
582.00	403.35
583.00	426.76
584.00	423.64
585.00	429.88
586.00	418.18
587.00	431.44
588.00	422.08
589.00	428.32
590.00	451.72
591.00	448.60
592.00	436.12
593.00	401.01
594.00	391.65
595.00	405.69
596.00	407.25
597.00	418.18
598.00	425.20
599.00	439.24
600.00	464.21
601.00	443.14
602.00	431.44
603.00	391.65
604.00	377.61
605.00	370.58
606.00	370.58
607.00	376.05
608.00	399.45
609.00	402.57
610.00	408.81
611.00	404.91
612.00	436.12
613.00	446.26
614.00	444.70
615.00	403.35
616.00	390.09
617.00	398.67
618.00	408.81
619.00	401.79
620.00	384.63
621.00	389.31
622.00	411.15
623.00	406.47
624.00	429.10
625.00	429.88
626.00	445.48
627.00	433.00
628.00	427.54
629.00	440.80
630.00	443.92
631.00	393.99
632.00	368.24
633.00	372.93
634.00	422.86
635.00	406.47
636.00	409.59
637.00	408.81
638.00	426.76
639.00	441.58
640.00	437.68
641.00	454.84
642.00	439.24
643.00	437.68
644.00	428.32
645.00	426.76
646.00	420.52
647.00	420.52
648.00	414.27
649.00	440.02
650.00	436.90
651.00	436.12
652.00	417.40
653.00	418.96
654.00	479.03
655.00	502.43
656.00	514.14
657.00	461.09
658.00	440.80
659.00	445.48
660.00	442.36
661.00	452.50
662.00	468.89
663.00	447.04
664.00	433.00
665.00	397.11
666.00	438.46
667.00	449.38
668.00	458.74
669.00	442.36
670.00	447.04
671.00	439.24
672.00	449.38
673.00	437.68
674.00	427.54
675.00	421.30
676.00	405.69
677.00	427.54
678.00	398.67
679.00	418.18
680.00	397.11
681.00	458.75
682.00	446.26
683.00	460.31
684.00	425.20
685.00	424.42
686.00	432.22
687.00	439.24
688.00	440.80
689.00	432.22
690.00	399.45
691.00	427.54
692.00	426.76
693.00	447.82
694.00	416.62
695.00	408.03
696.00	401.79
697.00	397.89
698.00	413.49
699.00	422.86
700.00	438.46
701.00	435.34
702.00	420.52
703.00	420.52
704.00	387.75
705.00	386.97
706.00	377.61
707.00	405.69
708.00	398.67
709.00	420.52
710.00	414.27
711.00	420.52
712.00	397.89
713.00	404.13
714.00	427.54
715.00	450.16
716.00	451.72
717.00	431.44
718.00	456.40
719.00	445.48
720.00	459.53
721.00	410.37
722.00	422.08
723.00	429.88
724.00	422.08
725.00	408.81
726.00	391.65
727.00	403.35
728.00	373.71
729.00	393.21
730.00	397.11
731.00	455.62
732.00	415.84
733.00	429.10
734.00	426.76
735.00	480.59
736.00	489.17
737.00	486.05
738.00	472.01
739.00	472.79
740.00	453.28
741.00	433.78
742.00	418.18
743.00	447.04
744.00	482.93
745.00	487.61
746.00	470.45
747.00	418.18
748.00	418.96
749.00	432.22
750.00	457.96
751.00	451.72
752.00	440.80
753.00	429.88
754.00	417.40
755.00	411.93
756.00	416.62
757.00	419.74
758.00	451.72
759.00	484.49
760.00	512.58
761.00	474.35
762.00	433.78
763.00	407.25
764.00	415.06
765.00	436.12
766.00	418.18
767.00	409.59
768.00	401.79
769.00	413.49
770.00	408.03
771.00	419.74
772.00	445.48
773.00	450.16
774.00	448.60
775.00	436.12
776.00	440.80
777.00	413.49
778.00	450.94
779.00	479.03
780.00	535.20
781.00	535.20
782.00	539.88
783.00	594.50
784.00	567.19
785.00	557.83
786.00	454.84
787.00	446.26
788.00	419.74
789.00	437.68
790.00	417.40
791.00	415.84
792.00	418.96
793.00	437.68
794.00	431.44
795.00	427.54
796.00	433.78
797.00	466.55
798.00	496.97
799.00	497.75
800.00	504.00
801.00	485.27
802.00	473.57
803.00	462.65
804.00	450.16
805.00	450.94
806.00	445.48
807.00	443.92
808.00	465.77
809.00	465.77
810.00	460.31
811.00	480.59
812.00	467.33
813.00	463.43
814.00	401.01
815.00	393.21
816.00	379.95
817.00	398.67
818.00	397.89
819.00	391.65
820.00	409.59
821.00	465.77
822.00	516.48
823.00	517.26
824.00	489.17
825.00	480.59
826.00	481.37
827.00	447.82
828.00	433.78
829.00	408.03
830.00	446.26
831.00	450.94
832.00	464.21
833.00	449.38
834.00	459.53
835.00	458.75
836.00	472.01
837.00	451.72
838.00	444.70
839.00	411.15
840.00	444.70
841.00	457.96
842.00	501.65
843.00	489.17
844.00	498.53
845.00	457.18
846.00	450.16
847.00	448.60
848.00	491.51
849.00	486.05
850.00	456.40
851.00	429.88
852.00	408.81
853.00	429.88
854.00	446.26
855.00	478.25
856.00	469.67
857.00	463.43
858.00	462.65
859.00	454.06
860.00	436.12
861.00	429.88
862.00	448.60
863.00	455.62
864.00	410.37
865.00	398.67
866.00	411.15
867.00	437.68
868.00	434.56
869.00	422.08
870.00	409.59
871.00	395.55
872.00	398.67
873.00	416.62
874.00	433.00
875.00	422.08
876.00	413.49
877.00	388.53
878.00	384.63
879.00	386.97
880.00	418.18
881.00	441.58
882.00	464.21
883.00	450.94
884.00	447.04
885.00	449.38
886.00	460.31
887.00	458.75
888.00	417.40
889.00	454.06
890.00	444.70
891.00	485.27
892.00	459.53
893.00	459.53
894.00	461.87
895.00	438.46
896.00	443.92
897.00	428.32
898.00	449.38
899.00	457.18
900.00	450.16
901.00	459.53
902.00	478.25
903.00	550.81
904.00	645.21
905.00	749.75
906.00	803.58
907.00	805.14
908.00	771.60
909.00	1043.88
910.00	1065.72
911.00	1156.22
912.00	919.05
913.00	936.21
914.00	848.83
915.00	744.29
916.00	642.87
917.00	562.51
918.00	518.82
919.00	475.91
920.00	439.24
921.00	438.46
922.00	432.22
923.00	447.04
924.00	454.84
925.00	459.53
926.00	454.06
927.00	423.64
928.00	436.90
929.00	459.53
930.00	479.81
931.00	447.04
932.00	455.62
933.00	469.67
934.00	478.25
935.00	472.79
936.00	467.33
937.00	496.97
938.00	494.63
939.00	484.49
940.00	473.57
941.00	470.45
942.00	503.22
943.00	667.83
944.00	1124.24
945.00	2001.94
946.00	3004.47
947.00	3714.43
948.00	3758.90
949.00	3242.42
950.00	2396.71
951.00	1600.93
952.00	1018.13
953.00	715.42
954.00	560.17
955.00	490.73
956.00	448.60
957.00	448.60
958.00	440.02
959.00	468.11
960.00	461.87
961.00	465.77
962.00	438.46
963.00	437.68
964.00	450.16
965.00	460.31
966.00	471.23
967.00	449.38
968.00	468.89
969.00	450.94
970.00	436.90
971.00	413.49
972.00	401.01
973.00	405.69
974.00	399.45
975.00	418.96
976.00	437.68
977.00	461.09
978.00	479.03
979.00	493.85
980.00	479.81
981.00	453.28
982.00	446.26
983.00	440.02
984.00	444.70
985.00	417.40
986.00	425.98
987.00	421.30
988.00	437.68
989.00	444.70
990.00	433.78
991.00	433.00
992.00	412.71
993.00	447.04
994.00	454.06
995.00	462.65
996.00	456.40
997.00	453.28
998.00	481.37
999.00	479.81
1000.00	472.79
1001.00	455.62
1002.00	443.14
1003.00	483.71
1004.00	481.37
1005.00	507.12
1006.00	475.13
1007.00	480.59
1008.00	458.75
1009.00	466.55
1010.00	469.67
1011.00	475.91
1012.00	469.67
1013.00	457.18
1014.00	459.53
1015.00	466.55
1016.00	470.45
1017.00	465.77
1018.00	448.60
1019.00	452.50
1020.00	433.00
1021.00	440.80
1022.00	436.90
1023.00	482.15
1024.00	474.35
1025.00	447.82
1026.00	429.88
1027.00	452.50
1028.00	482.93
1029.00	475.91
1030.00	441.58
1031.00	436.90
1032.00	440.80
1033.00	461.09
1034.00	456.40
1035.00	453.28
1036.00	446.26
1037.00	447.04
1038.00	437.68
1039.00	429.10
1040.00	459.53
1041.00	486.83
1042.00	520.38
1043.00	523.50
1044.00	532.08
1045.00	560.17
1046.00	541.44
1047.00	511.80
1048.00	462.65
1049.00	450.16
1050.00	437.68
1051.00	406.47
1052.00	412.71
1053.00	427.54
1054.00	461.87
1055.00	460.31
1056.00	454.84
1057.00	450.94
1058.00	433.78
1059.00	432.22
1060.00	432.22
1061.00	433.00
1062.00	423.64
1063.00	437.68
1064.00	473.57
1065.00	495.41
1066.00	482.93
1067.00	457.96
1068.00	449.38
1069.00	444.70
1070.00	425.20
1071.00	435.34
1072.00	418.18
1073.00	457.96
1074.00	441.58
1075.00	440.80
1076.00	441.58
1077.00	454.84
1078.00	472.01
1079.00	464.99
1080.00	479.81
1081.00	454.06
1082.00	450.16
1083.00	433.00
1084.00	450.16
1085.00	427.54
1086.00	436.12
1087.00	467.33
1088.00	480.59
1089.00	493.85
1090.00	467.33
1091.00	464.99
1092.00	452.50
1093.00	446.26
1094.00	449.38
1095.00	478.25
1096.00	459.53
1097.00	456.40
1098.00	427.54
1099.00	498.53
1100.00	551.59
1101.00	573.43
1102.00	556.27
1103.00	519.60
1104.00	507.90
1105.00	517.26
1106.00	523.50
1107.00	506.34
1108.00	493.07
1109.00	487.61
1110.00	505.56
1111.00	478.25
1112.00	454.84
1113.00	449.38
1114.00	461.09
1115.00	487.61
1116.00	490.73
1117.00	477.47
1118.00	449.38
1119.00	454.84
1120.00	486.05
1121.00	516.48
1122.00	549.25
1123.00	539.88
1124.00	531.30
1125.00	488.39
1126.00	464.99
1127.00	468.11
1128.00	477.47
1129.00	456.40
1130.00	440.80
1131.00	427.54
1132.00	460.31
1133.00	458.75
1134.00	472.01
1135.00	473.57
1136.00	487.61
1137.00	489.95
1138.00	540.66
1139.00	571.87
1140.00	578.11
1141.00	541.44
1142.00	497.75
1143.00	475.13
1144.00	483.71
1145.00	488.39
1146.00	488.39
1147.00	464.99
1148.00	480.59
1149.00	489.95
1150.00	515.70
1151.00	520.38
1152.00	496.97
1153.00	483.71
1154.00	507.90
1155.00	561.73
1156.00	636.63
1157.00	677.20
1158.00	722.45
1159.00	706.06
1160.00	676.41
1161.00	634.29
1162.00	592.16
1163.00	628.82
1164.00	752.09
1165.00	1060.26
1166.00	1406.66
1167.00	1688.31
1168.00	1724.19
1169.00	1565.04
1170.00	1298.22
1171.00	1044.66
1172.00	841.81
1173.00	702.94
1174.00	618.68
1175.00	592.16
1176.00	584.35
1177.00	573.43
1178.00	574.99
1179.00	578.89
1180.00	596.06
1181.00	606.20
1182.00	625.70
1183.00	624.14
1184.00	647.55
1185.00	665.49
1186.00	685.78
1187.00	671.73
1188.00	663.15
1189.00	708.40
1190.00	756.77
1191.00	823.87
1192.00	872.24
1193.00	908.91
1194.00	910.47
1195.00	867.56
1196.00	806.70
1197.00	792.66
1198.00	832.45
1199.00	976.00
1200.00	1174.95
1201.00	1377.02
1202.00	1494.82
1203.00	1513.55
1204.00	1402.76
1205.00	1281.83
1206.00	1125.80
1207.00	1090.69
1208.00	1077.43
1209.00	1113.31
1210.00	1175.73
1211.00	1228.00
1212.00	1345.81
1213.00	1465.18
1214.00	1677.38
1215.00	1967.61
1216.00	2559.77
1217.00	5803.75
1218.00	21280.15
1219.00	41992.33
1220.00	59951.26
1221.00	65535.00
1222.00	65535.00
1223.00	65535.00
1224.00	65535.00
1225.00	65375.06
1226.00	56189.24
1227.00	40587.23
1228.00	21978.41
1229.00	10847.60
1230.00	5553.31
1231.00	3223.70
1232.00	2283.58
1233.00	1928.60
1234.00	1742.14
1235.00	1699.23
1236.00	2168.12
1237.00	3842.38
1238.00	7176.08
1239.00	11587.99
1240.00	15225.18
1241.00	16222.25
1242.00	14501.96
1243.00	11218.19
1244.00	7763.56
1245.00	4824.62
1246.00	2766.51
1247.00	1717.17
1248.00	1217.08
1249.00	988.49
1250.00	919.83
1251.00	952.60
1252.00	1077.43
1253.00	1187.43
1254.00	1274.81
1255.00	1271.69
1256.00	1250.63
1257.00	1132.04
1258.00	1060.26
1259.00	966.64
1260.00	942.46
1261.00	866.78
1262.00	873.02
1263.00	859.76
1264.00	854.30
1265.00	819.19
1266.00	791.10
1267.00	781.74
1268.00	774.72
1269.00	779.40
1270.00	785.64
1271.00	770.82
1272.00	791.10
1273.00	820.75
1274.00	899.55
1275.00	1282.61
1276.00	2995.11
1277.00	7229.91
1278.00	14626.79
1279.00	22801.50
1280.00	28461.69
1281.00	28546.73
1282.00	24438.31
1283.00	17832.54
1284.00	11673.03
1285.00	6671.31
1286.00	3705.85
1287.00	2165.00
1288.00	1432.41
1289.00	1049.34
1290.00	892.52
1291.00	848.83
1292.00	899.55
1293.00	911.25
1294.00	945.58
1295.00	1103.17
1296.00	1699.23
1297.00	2981.06
1298.00	4764.55
1299.00	6329.59
1300.00	6796.14
1301.00	6239.87
1302.00	4970.52
1303.00	3667.62
1304.00	2456.78
1305.00	1597.03
1306.00	1128.92
1307.00	922.95
1308.00	880.04
1309.00	825.43
1310.00	817.63
1311.00	753.65
1312.00	723.23
1313.00	664.71
1314.00	633.50
1315.00	592.16
1316.00	571.87
1317.00	600.74
1318.00	614.00
1319.00	591.38
1320.00	548.47
1321.00	548.47
1322.00	571.09
1323.00	571.09
1324.00	560.17
1325.00	541.44
1326.00	567.97
1327.00	577.33
1328.00	614.78
1329.00	681.10
1330.00	1044.66
1331.00	1942.64
1332.00	3572.44
1333.00	5492.46
1334.00	7009.90
1335.00	7339.92
1336.00	6561.30
1337.00	5178.83
1338.00	3678.54
1339.00	2440.40
1340.00	1522.13
1341.00	1081.33
1342.00	868.34
1343.00	769.26
1344.00	678.76
1345.00	635.85
1346.00	610.10
1347.00	615.56
1348.00	626.48
1349.00	612.44
1350.00	625.70
1351.00	633.50
1352.00	667.05
1353.00	644.43
1354.00	653.01
1355.00	682.66
1356.00	759.11
1357.00	860.54
1358.00	1451.13
1359.00	3556.05
1360.00	7854.84
1361.00	14402.10
1362.00	20685.65
1363.00	24022.48
1364.00	22857.67
1365.00	18790.60
1366.00	13555.60
1367.00	8869.07
1368.00	5189.75
1369.00	3006.03
1370.00	1887.25
1371.00	1431.63
1372.00	2097.12
1373.00	5420.68
1374.00	12683.36
1375.00	24026.38
1376.00	35457.56
1377.00	42211.56
1378.00	40975.76
1379.00	34248.28
1380.00	24720.74
1381.00	16083.38
1382.00	9040.71
1383.00	4857.39
1384.00	2640.12
1385.00	1601.71
1386.00	1145.30
1387.00	955.72
1388.00	868.34
1389.00	842.59
1390.00	838.69
1391.00	848.05
1392.00	840.25
1393.00	819.97
1394.00	866.78
1395.00	1039.98
1396.00	1348.15
1397.00	1645.40
1398.00	1856.82
1399.00	1898.95
1400.00	1795.19
1401.00	1707.03
1402.00	2182.16
1403.00	5701.55
1404.00	14781.26
1405.00	30583.78
1406.00	46402.68
1407.00	57054.46
1408.00	58966.68
1409.00	54688.18
1410.00	44867.29
1411.00	31647.16
1412.00	18976.28
1413.00	10061.18
1414.00	5332.52
1415.00	3017.73
1416.00	2401.39
1417.00	3599.74
1418.00	6704.07
1419.00	11174.50
1420.00	15362.50
1421.00	17358.97
1422.00	16453.97
1423.00	13444.04
1424.00	9683.58
1425.00	6308.52
1426.00	3723.01
1427.00	2227.41
1428.00	1423.05
1429.00	1069.62
1430.00	881.60
1431.00	807.48
1432.00	801.24
1433.00	807.48
1434.00	802.02
1435.00	737.27
1436.00	707.62
1437.00	653.01
1438.00	649.11
1439.00	637.41
1440.00	624.14
1441.00	642.87
1442.00	606.20
1443.00	635.07
1444.00	599.96
1445.00	630.38
1446.00	628.04
1447.00	615.56
1448.00	598.40
1449.00	610.88
1450.00	692.80
1451.00	974.44
1452.00	1877.11
1453.00	3676.20
1454.00	6342.07
1455.00	8893.26
1456.00	10350.63
1457.00	10010.47
1458.00	8557.78
1459.00	6377.96
1460.00	4382.26
1461.00	2636.22
1462.00	1636.81
1463.00	1078.21
1464.00	820.75
1465.00	690.46
1466.00	632.72
1467.00	624.14
1468.00	616.34
1469.00	611.66
1470.00	617.90
1471.00	628.82
1472.00	652.23
1473.00	623.36
1474.00	618.68
1475.00	635.85
1476.00	670.95
1477.00	692.80
1478.00	674.07
1479.00	697.48
1480.00	718.54
1481.00	770.82
1482.00	841.81
1483.00	1260.77
1484.00	3148.80
1485.00	7730.79
1486.00	15816.56
1487.00	25521.98
1488.00	33240.29
1489.00	35350.67
1490.00	31807.88
1491.00	25018.77
1492.00	17398.76
1493.00	10745.40
1494.00	5854.46
1495.00	3175.33
1496.00	1891.15
1497.00	1246.73
1498.00	950.26
1499.00	787.20
1500.00	687.34
1501.00	656.13
1502.00	633.50
1503.00	649.11
1504.00	610.88
1505.00	638.19
1506.00	664.71
1507.00	685.00
1508.00	709.18
1509.00	935.43
1510.00	1730.44
1511.00	3268.95
1512.00	5476.07
1513.00	7545.11
1514.00	8697.43
1515.00	8458.70
1516.00	7181.54
1517.00	5431.60
1518.00	3745.64
1519.00	2400.61
1520.00	1542.41
1521.00	1074.31
1522.00	848.83
1523.00	769.26
1524.00	739.61
1525.00	717.76
1526.00	727.13
1527.00	777.84
1528.00	1031.40
1529.00	2050.31
1530.00	4656.11
1531.00	9366.82
1532.00	15737.76
1533.00	21277.03
1534.00	23695.58
1535.00	22011.18
1536.00	17960.49
1537.00	12978.27
1538.00	8500.05
1539.00	4880.02
1540.00	2780.56
1541.00	1658.66
1542.00	1171.83
1543.00	901.89
1544.00	791.10
1545.00	748.19
1546.00	714.64
1547.00	672.51
1548.00	672.51
1549.00	705.28
1550.00	704.50
1551.00	686.56
1552.00	690.46
1553.00	701.38
1554.00	716.20
1555.00	704.50
1556.00	750.53
1557.00	775.50
1558.00	807.48
1559.00	841.81
1560.00	962.74
1561.00	1692.99
1562.00	4574.19
1563.00	11149.53
1564.00	21928.48
1565.00	33731.80
1566.00	42151.49
1567.00	43622.90
1568.00	39026.87
1569.00	30766.34
1570.00	21552.43
1571.00	13363.68
1572.00	7477.23
1573.00	4364.32
1574.00	3833.02
1575.00	7648.09
1576.00	17284.08
1577.00	32744.09
1578.00	47441.10
1579.00	56843.03
1580.00	58219.27
1581.00	54168.58
1582.00	45196.52
1583.00	32829.91
1584.00	20350.96
1585.00	11066.83
1586.00	5860.70
1587.00	3226.04
1588.00	1952.01
1589.00	1343.47
1590.00	1073.53
1591.00	920.61
1592.00	845.71
1593.00	780.18
1594.00	751.31
1595.00	705.28
1596.00	682.66
1597.00	661.59
1598.00	669.39
1599.00	656.91
1600.00	633.50
1601.00	605.42
1602.00	574.21
1603.00	557.83
1604.00	547.69
1605.00	576.55
1606.00	592.94
1607.00	628.82
1608.00	614.78
1609.00	586.69
1610.00	599.96
1611.00	603.86
1612.00	609.32
1613.00	552.37
1614.00	558.61
1615.00	583.57
1616.00	592.94
1617.00	567.97
1618.00	567.97
1619.00	578.89
1620.00	614.00
1621.00	590.60
1622.00	598.40
1623.00	557.05
1624.00	572.65
1625.00	565.63
1626.00	592.94
1627.00	593.72
1628.00	624.14
1629.00	576.55
1630.00	565.63
1631.00	515.70
1632.00	553.93
1633.00	552.37
1634.00	589.81
1635.00	600.74
1636.00	598.40
1637.00	588.25
1638.00	583.57
1639.00	624.14
1640.00	635.07
1641.00	653.01
1642.00	642.87
1643.00	662.37
1644.00	719.32
1645.00	1291.20
1646.00	3456.97
1647.00	8091.23
1648.00	16047.49
1649.00	25358.92
1650.00	32779.20
1651.00	34806.89
1652.00	32002.14
1653.00	26073.57
1654.00	19066.78
1655.00	12262.07
1656.00	7018.49
1657.00	3934.44
1658.00	2266.42
1659.00	1442.55
1660.00	1025.93
1661.00	846.49
1662.00	749.75
1663.00	826.99
1664.00	1401.20
1665.00	2791.48
1666.00	5186.63
1667.00	8345.57
1668.00	11017.68
1669.00	12237.10
1670.00	11599.70
1671.00	9776.42
1672.00	7426.52
1673.00	5029.81
1674.00	3108.23
1675.00	1881.79
1676.00	1216.30
1677.00	894.08
1678.00	724.79
1679.00	606.98
1680.00	565.63
1681.00	523.50
1682.00	535.98
1683.00	533.64
1684.00	538.32
1685.00	532.86
1686.00	517.26
1687.00	491.51
1688.00	506.34
1689.00	522.72
1690.00	535.20
1691.00	511.02
1692.00	469.67
1693.00	455.62
1694.00	447.82
1695.00	462.65
1696.00	492.29
1697.00	525.84
1698.00	533.64
1699.00	530.52
1700.00	540.66
1701.00	550.03
1702.00	559.39
1703.00	568.75
1704.00	580.45
1705.00	597.62
1706.00	589.81
1707.00	596.84
1708.00	623.36
1709.00	887.84
1710.00	1876.33
1711.00	4074.09
1712.00	7687.10
1713.00	12124.76
1714.00	15758.83
1715.00	17273.93
1716.00	16270.62
1717.00	13589.93
1718.00	10172.75
1719.00	6815.64
1720.00	4179.42
1721.00	2473.17
1722.00	1538.51
1723.00	1025.15
1724.00	750.53
1725.00	610.10
1726.00	547.69
1727.00	528.18
1728.00	529.74
1729.00	552.37
1730.00	568.75
1731.00	560.17
1732.00	539.88
1733.00	523.50
1734.00	492.29
1735.00	520.38
1736.00	532.86
1737.00	539.88
1738.00	518.04
1739.00	498.53
1740.00	511.02
1741.00	516.48
1742.00	514.92
1743.00	517.26
1744.00	489.17
1745.00	496.19
1746.00	484.49
1747.00	497.75
1748.00	500.87
1749.00	538.32
1750.00	550.03
1751.00	589.81
1752.00	580.45
1753.00	607.76
1754.00	589.03
1755.00	573.43
1756.00	575.77
1757.00	580.45
1758.00	604.64
1759.00	592.94
1760.00	577.33
1761.00	587.47
1762.00	618.68
1763.00	690.46
1764.00	823.87
1765.00	1494.82
1766.00	3722.23
1767.00	8081.09
1768.00	14915.45
1769.00	22668.09
1770.00	28748.02
1771.00	30508.88
1772.00	28049.76
1773.00	22881.08
1774.00	16864.34
1775.00	11064.49
1776.00	6565.98
1777.00	3775.28
1778.00	2214.93
1779.00	1423.05
1780.00	1003.31
1781.00	810.61
1782.00	716.20
1783.00	674.85
1784.00	659.25
1785.00	651.45
1786.00	609.32
1787.00	589.03
1788.00	562.51
1789.00	612.44
1790.00	621.02
1791.00	658.47
1792.00	801.24
1793.00	1598.59
1794.00	3566.20
1795.00	6853.87
1796.00	11537.28
1797.00	15939.05
1798.00	18579.95
1799.00	18301.43
1800.00	16018.63
1801.00	12606.91
1802.00	9034.47
1803.00	5774.88
1804.00	3506.12
1805.00	2076.84
1806.00	1315.38
1807.00	914.37
1808.00	724.01
1809.00	639.75
1810.00	610.10
1811.00	585.13
1812.00	565.63
1813.00	553.15
1814.00	552.37
1815.00	535.98
1816.00	529.74
1817.00	511.80
1818.00	495.41
1819.00	521.94
1820.00	569.53
1821.00	621.80
1822.00	659.25
1823.00	657.69
1824.00	683.44
1825.00	667.83
1826.00	681.10
1827.00	645.21
1828.00	595.28
1829.00	553.93
1830.00	540.66
1831.00	516.48
1832.00	485.27
1833.00	449.38
1834.00	470.45
1835.00	445.48
1836.00	440.02
1837.00	425.98
1838.00	465.77
1839.00	447.04
1840.00	420.52
1841.00	411.15
1842.00	442.36
1843.00	454.06
1844.00	429.10
1845.00	422.86
1846.00	431.44
1847.00	468.89
1848.00	452.50
1849.00	460.31
1850.00	453.28
1851.00	478.25
1852.00	463.43
1853.00	447.04
1854.00	437.68
1855.00	434.56
1856.00	425.98
1857.00	436.90
1858.00	446.26
1859.00	454.06
1860.00	423.64
1861.00	424.42
1862.00	436.90
1863.00	458.75
1864.00	477.47
1865.00	484.49
1866.00	451.72
1867.00	405.69
1868.00	363.56
1869.00	398.67
1870.00	429.10
1871.00	441.58
1872.00	436.90
1873.00	423.64
1874.00	436.12
1875.00	440.80
1876.00	445.48
1877.00	436.12
1878.00	419.74
1879.00	431.44
1880.00	450.16
1881.00	475.13
1882.00	491.51
1883.00	451.72
1884.00	450.94
1885.00	429.88
1886.00	486.05
1887.00	468.89
1888.00	462.65
1889.00	441.58
1890.00	454.06
1891.00	438.46
1892.00	433.00
1893.00	399.45
1894.00	431.44
1895.00	454.06
1896.00	481.37
1897.00	484.49
1898.00	502.43
1899.00	493.07
1900.00	494.63
1901.00	436.90
1902.00	459.53
1903.00	458.75
1904.00	484.49
1905.00	469.67
1906.00	475.91
1907.00	510.24
1908.00	554.71
1909.00	593.72
1910.00	615.56
1911.00	624.14
1912.00	614.78
1913.00	581.23
1914.00	560.95
1915.00	535.20
1916.00	531.30
1917.00	494.63
1918.00	511.02
1919.00	513.36
1920.00	532.08
1921.00	494.63
1922.00	474.35
1923.00	469.67
1924.00	465.77
1925.00	462.65
1926.00	477.47
1927.00	486.83
1928.00	511.02
1929.00	474.35
1930.00	483.71
1931.00	455.62
1932.00	488.39
1933.00	454.84
1934.00	474.35
1935.00	435.34
1936.00	462.65
1937.00	426.76
1938.00	435.34
1939.00	440.80
1940.00	481.37
1941.00	493.85
1942.00	501.65
1943.00	493.07
1944.00	498.53
1945.00	534.42
1946.00	620.24
1947.00	988.49
1948.00	2033.15
1949.00	3999.20
1950.00	7011.46
1951.00	10513.69
1952.00	13431.55
1953.00	14508.20
1954.00	13628.16
1955.00	11676.93
1956.00	9273.98
1957.00	6927.99
1958.00	4738.02
1959.00	3148.02
1960.00	2040.95
1961.00	1354.39
1962.00	964.30
1963.00	760.67
1964.00	639.75
1965.00	582.79
1966.00	538.32
1967.00	507.12
1968.00	490.73
1969.00	472.01
1970.00	475.91
1971.00	497.75
1972.00	511.02
1973.00	541.44
1974.00	549.25
1975.00	633.50
1976.00	766.92
1977.00	958.84
1978.00	1132.82
1979.00	1237.36
1980.00	1244.38
1981.00	1196.01
1982.00	1107.07
1983.00	987.71
1984.00	858.98
1985.00	740.39
1986.00	656.13
1987.00	582.79
1988.00	550.81
1989.00	525.06
1990.00	497.75
1991.00	463.43
1992.00	466.55
1993.00	490.73
1994.00	502.44
1995.00	502.44
1996.00	479.03
1997.00	489.95
1998.00	514.92
1999.00	518.04
2000.00	518.04
2001.00	509.46
2002.00	525.84
2003.00	521.16
2004.00	499.31
2005.00	486.05
2006.00	484.49
2007.00	482.15
2008.00	497.75
2009.00	508.68
2010.00	532.08
2011.00	532.08
2012.00	514.92
2013.00	528.96
2014.00	526.62
2015.00	546.91
2016.00	528.96
2017.00	541.44
2018.00	550.81
2019.00	610.88
2020.00	729.47
2021.00	908.13
2022.00	1156.22
2023.00	1438.65
2024.00	1992.58
2025.00	3545.91
2026.00	6734.50
2027.00	11911.77
2028.00	18633.78
2029.00	25068.70
2030.00	29444.72
2031.00	30029.07
2032.00	27996.71
2033.00	23939.78
2034.00	19055.08
2035.00	13945.69
2036.00	9505.70
2037.00	6257.03
2038.00	3983.59
2039.00	2448.98
2040.00	1597.81
2041.00	1090.69
2042.00	886.28
2043.00	753.65
2044.00	698.26
2045.00	668.61
2046.00	647.55
2047.00	613.22
>>>>>End Processed Spectral Data<<<<<
