SpectraSuite Data File
++++++++++++++++++++++++++++++++++++
Date: Thu Nov 16 13:55:21 EST 2017
User: cheriyan
Dark Spectrum Present: No
Reference Spectrum Present: No
Number of Sampled Component Spectra: 1
Spectrometers: USB2+H05261
Integration Time (usec): 100000 (USB2+H05261)
Spectra Averaged: 1 (USB2+H05261)
Boxcar Smoothing: 1 (USB2+H05261)
Correct for Electrical Dark: No (USB2+H05261)
Strobe/Lamp Enabled: No (USB2+H05261)
Correct for Detector Non-linearity: No (USB2+H05261)
Correct for Stray Light: No (USB2+H05261)
Number of Pixels in Processed Spectrum: 2048
>>>>>Begin Processed Spectral Data<<<<<
0.00	337.04
1.00	337.04
2.00	328.46
3.00	294.91
4.00	293.35
5.00	277.74
6.00	262.14
7.00	231.71
8.00	202.85
9.00	216.89
10.00	199.73
11.00	204.41
12.00	220.79
13.00	241.86
14.00	275.40
15.00	262.14
16.00	273.84
17.00	265.26
18.00	275.40
19.00	291.01
20.00	287.89
21.00	283.98
22.00	291.01
23.00	319.09
24.00	348.74
25.00	337.82
26.00	328.46
27.00	330.02
28.00	351.08
29.00	393.21
30.00	401.01
31.00	398.67
32.00	380.73
33.00	397.89
34.00	422.08
35.00	425.98
36.00	408.03
37.00	397.89
38.00	393.21
39.00	421.30
40.00	421.30
41.00	454.84
42.00	430.66
43.00	424.42
44.00	395.55
45.00	411.15
46.00	419.74
47.00	448.60
48.00	455.62
49.00	474.35
50.00	479.81
51.00	479.81
52.00	471.23
53.00	416.62
54.00	382.29
55.00	344.84
56.00	373.71
57.00	397.89
58.00	415.84
59.00	408.81
60.00	399.45
61.00	409.59
62.00	411.15
63.00	416.62
64.00	413.49
65.00	415.06
66.00	404.13
67.00	379.17
68.00	400.23
69.00	418.96
70.00	452.50
71.00	433.00
72.00	433.00
73.00	425.20
74.00	433.00
75.00	396.33
76.00	365.90
77.00	337.82
78.00	340.94
79.00	360.44
80.00	386.19
81.00	419.74
82.00	418.18
83.00	398.67
84.00	372.15
85.00	358.10
86.00	365.90
87.00	393.99
88.00	408.03
89.00	425.98
90.00	428.32
91.00	452.50
92.00	432.22
93.00	419.74
94.00	398.67
95.00	395.55
96.00	378.39
97.00	398.67
98.00	417.40
99.00	399.45
100.00	371.36
101.00	344.06
102.00	365.90
103.00	401.01
104.00	401.01
105.00	414.27
106.00	388.53
107.00	410.37
108.00	411.15
109.00	414.27
110.00	416.62
111.00	411.93
112.00	393.21
113.00	390.87
114.00	399.45
115.00	405.69
116.00	409.59
117.00	388.53
118.00	371.36
119.00	348.74
120.00	372.15
121.00	422.86
122.00	444.70
123.00	450.94
124.00	434.56
125.00	429.88
126.00	383.85
127.00	377.61
128.00	385.41
129.00	399.45
130.00	397.89
131.00	385.41
132.00	395.55
133.00	390.09
134.00	379.17
135.00	394.77
136.00	427.54
137.00	449.38
138.00	451.72
139.00	444.70
140.00	459.53
141.00	440.02
142.00	429.10
143.00	412.71
144.00	441.58
145.00	472.01
146.00	500.09
147.00	511.02
148.00	496.97
149.00	496.97
150.00	485.27
151.00	484.49
152.00	446.26
153.00	436.90
154.00	433.00
155.00	444.70
156.00	436.90
157.00	411.15
158.00	398.67
159.00	393.21
160.00	401.01
161.00	401.01
162.00	401.79
163.00	391.65
164.00	395.55
165.00	406.47
166.00	397.89
167.00	386.97
168.00	360.44
169.00	373.71
170.00	384.63
171.00	401.79
172.00	397.11
173.00	397.89
174.00	383.07
175.00	406.47
176.00	427.54
177.00	439.24
178.00	400.23
179.00	377.61
180.00	401.01
181.00	431.44
182.00	445.48
183.00	429.10
184.00	400.23
185.00	393.99
186.00	384.63
187.00	421.30
188.00	406.47
189.00	393.99
190.00	376.05
191.00	383.85
192.00	389.31
193.00	398.67
194.00	443.14
195.00	483.71
196.00	517.26
197.00	496.19
198.00	504.00
199.00	482.15
200.00	458.75
201.00	433.78
202.00	405.69
203.00	425.20
204.00	408.81
205.00	411.15
206.00	397.89
207.00	397.89
208.00	400.23
209.00	379.17
210.00	381.51
211.00	418.96
212.00	433.00
213.00	426.76
214.00	390.87
215.00	427.54
216.00	455.62
217.00	440.02
218.00	390.09
219.00	372.15
220.00	394.77
221.00	420.52
222.00	426.76
223.00	422.08
224.00	401.79
225.00	389.31
226.00	358.88
227.00	365.12
228.00	385.41
229.00	400.23
230.00	393.99
231.00	365.90
232.00	387.75
233.00	397.89
234.00	395.55
235.00	401.01
236.00	397.11
237.00	417.40
238.00	385.41
239.00	392.43
240.00	365.90
241.00	379.17
242.00	380.73
243.00	393.99
244.00	411.15
245.00	414.27
246.00	419.74
247.00	447.82
248.00	424.42
249.00	425.20
250.00	382.29
251.00	393.99
252.00	404.13
253.00	423.64
254.00	427.54
255.00	434.56
256.00	445.48
257.00	443.14
258.00	419.74
259.00	408.81
260.00	382.29
261.00	388.53
262.00	388.53
263.00	408.81
264.00	422.08
265.00	440.80
266.00	500.87
267.00	546.12
268.00	551.59
269.00	528.18
270.00	525.84
271.00	546.12
272.00	613.22
273.00	624.92
274.00	645.21
275.00	608.54
276.00	589.82
277.00	549.25
278.00	528.96
279.00	496.19
280.00	461.09
281.00	426.76
282.00	400.23
283.00	389.31
284.00	390.09
285.00	392.43
286.00	415.06
287.00	406.47
288.00	416.62
289.00	404.91
290.00	404.13
291.00	403.35
292.00	404.13
293.00	414.27
294.00	420.52
295.00	416.62
296.00	401.79
297.00	398.67
298.00	394.77
299.00	406.47
300.00	406.47
301.00	411.15
302.00	408.03
303.00	423.64
304.00	421.30
305.00	437.68
306.00	473.57
307.00	558.61
308.00	621.02
309.00	642.87
310.00	613.22
311.00	578.89
312.00	542.22
313.00	496.97
314.00	461.87
315.00	464.99
316.00	452.50
317.00	454.06
318.00	422.86
319.00	448.60
320.00	445.48
321.00	438.46
322.00	425.98
323.00	395.55
324.00	419.74
325.00	423.64
326.00	458.74
327.00	444.70
328.00	433.00
329.00	427.54
330.00	422.86
331.00	440.80
332.00	437.68
333.00	413.49
334.00	393.99
335.00	401.01
336.00	409.59
337.00	420.52
338.00	407.25
339.00	437.68
340.00	452.50
341.00	448.60
342.00	440.80
343.00	424.42
344.00	464.21
345.00	484.49
346.00	551.59
347.00	614.00
348.00	692.80
349.00	745.85
350.00	738.05
351.00	674.07
352.00	591.38
353.00	559.39
354.00	546.91
355.00	525.84
356.00	511.80
357.00	475.91
358.00	452.50
359.00	435.34
360.00	444.70
361.00	419.74
362.00	403.35
363.00	397.11
364.00	447.04
365.00	430.66
366.00	440.02
367.00	420.52
368.00	451.72
369.00	456.40
370.00	450.94
371.00	424.42
372.00	400.23
373.00	392.43
374.00	376.05
375.00	383.07
376.00	400.23
377.00	404.13
378.00	404.13
379.00	399.45
380.00	418.18
381.00	404.13
382.00	396.33
383.00	390.87
384.00	372.93
385.00	396.33
386.00	405.69
387.00	449.38
388.00	451.72
389.00	437.68
390.00	455.62
391.00	404.91
392.00	414.27
393.00	390.87
394.00	429.88
395.00	439.24
396.00	426.76
397.00	422.86
398.00	418.18
399.00	408.03
400.00	422.86
401.00	421.30
402.00	437.68
403.00	405.69
404.00	412.71
405.00	419.74
406.00	440.80
407.00	421.30
408.00	428.32
409.00	408.03
410.00	405.69
411.00	393.21
412.00	428.32
413.00	438.46
414.00	456.40
415.00	445.48
416.00	434.56
417.00	407.25
418.00	406.47
419.00	416.62
420.00	419.74
421.00	408.81
422.00	415.84
423.00	426.76
424.00	447.04
425.00	440.02
426.00	437.68
427.00	437.68
428.00	443.14
429.00	430.66
430.00	408.81
431.00	398.67
432.00	390.87
433.00	378.39
434.00	393.21
435.00	415.84
436.00	411.15
437.00	391.65
438.00	376.05
439.00	403.35
440.00	392.43
441.00	388.53
442.00	399.45
443.00	412.71
444.00	443.92
445.00	434.56
446.00	433.78
447.00	415.84
448.00	402.57
449.00	427.54
450.00	415.84
451.00	432.22
452.00	433.00
453.00	450.94
454.00	414.27
455.00	410.37
456.00	438.46
457.00	464.21
458.00	461.87
459.00	429.88
460.00	430.66
461.00	422.86
462.00	414.27
463.00	387.75
464.00	376.83
465.00	388.53
466.00	423.64
467.00	440.02
468.00	447.82
469.00	436.12
470.00	418.18
471.00	401.79
472.00	398.67
473.00	394.77
474.00	386.19
475.00	387.75
476.00	413.49
477.00	415.06
478.00	401.79
479.00	395.55
480.00	385.41
481.00	404.91
482.00	379.95
483.00	387.75
484.00	390.87
485.00	415.06
486.00	424.42
487.00	412.71
488.00	407.25
489.00	410.37
490.00	419.74
491.00	409.59
492.00	431.44
493.00	433.00
494.00	443.92
495.00	412.71
496.00	425.98
497.00	429.10
498.00	425.98
499.00	395.55
500.00	392.43
501.00	420.52
502.00	443.92
503.00	425.98
504.00	436.12
505.00	402.57
506.00	440.02
507.00	415.84
508.00	443.92
509.00	408.03
510.00	435.34
511.00	411.93
512.00	432.22
513.00	402.57
514.00	433.78
515.00	444.70
516.00	447.04
517.00	436.90
518.00	440.02
519.00	429.10
520.00	439.24
521.00	443.92
522.00	479.81
523.00	472.01
524.00	448.60
525.00	430.66
526.00	428.32
527.00	414.27
528.00	436.12
529.00	441.58
530.00	474.35
531.00	454.84
532.00	450.94
533.00	452.50
534.00	437.68
535.00	433.78
536.00	411.93
537.00	434.56
538.00	424.42
539.00	447.82
540.00	436.90
541.00	423.64
542.00	411.93
543.00	408.03
544.00	427.54
545.00	427.54
546.00	418.96
547.00	428.32
548.00	448.60
549.00	492.29
550.00	519.60
551.00	494.63
552.00	451.72
553.00	437.68
554.00	444.70
555.00	461.87
556.00	456.40
557.00	443.14
558.00	433.78
559.00	435.34
560.00	448.60
561.00	442.36
562.00	416.62
563.00	410.37
564.00	426.76
565.00	452.50
566.00	460.31
567.00	431.44
568.00	388.53
569.00	376.05
570.00	409.59
571.00	446.26
572.00	472.01
573.00	472.79
574.00	474.35
575.00	471.23
576.00	463.43
577.00	437.68
578.00	408.81
579.00	393.99
580.00	409.59
581.00	387.75
582.00	381.51
583.00	410.37
584.00	439.24
585.00	462.65
586.00	438.46
587.00	433.78
588.00	421.30
589.00	401.01
590.00	420.52
591.00	436.90
592.00	454.84
593.00	430.66
594.00	423.64
595.00	421.30
596.00	430.66
597.00	426.76
598.00	429.10
599.00	430.66
600.00	415.84
601.00	416.62
602.00	386.97
603.00	407.25
604.00	384.63
605.00	396.33
606.00	395.55
607.00	394.77
608.00	390.09
609.00	388.53
610.00	397.89
611.00	399.45
612.00	379.95
613.00	373.71
614.00	408.81
615.00	427.54
616.00	439.24
617.00	432.22
618.00	425.98
619.00	436.12
620.00	428.32
621.00	449.38
622.00	449.38
623.00	453.28
624.00	436.12
625.00	433.78
626.00	426.76
627.00	423.64
628.00	424.42
629.00	455.62
630.00	464.99
631.00	447.04
632.00	427.54
633.00	418.96
634.00	419.74
635.00	401.01
636.00	417.40
637.00	419.74
638.00	430.66
639.00	422.08
640.00	437.68
641.00	457.18
642.00	450.16
643.00	426.76
644.00	402.57
645.00	396.33
646.00	411.15
647.00	417.40
648.00	429.10
649.00	426.76
650.00	444.70
651.00	444.70
652.00	440.02
653.00	404.13
654.00	422.86
655.00	433.78
656.00	466.55
657.00	439.24
658.00	428.32
659.00	410.37
660.00	422.08
661.00	399.45
662.00	408.03
663.00	385.41
664.00	411.15
665.00	396.33
666.00	381.51
667.00	397.89
668.00	427.54
669.00	455.62
670.00	457.96
671.00	425.20
672.00	416.62
673.00	407.25
674.00	433.78
675.00	446.26
676.00	433.00
677.00	393.21
678.00	366.68
679.00	393.99
680.00	439.24
681.00	432.22
682.00	407.25
683.00	379.95
684.00	426.76
685.00	443.14
686.00	449.38
687.00	429.88
688.00	430.66
689.00	425.20
690.00	439.24
691.00	443.14
692.00	450.94
693.00	433.00
694.00	392.43
695.00	390.87
696.00	405.69
697.00	418.96
698.00	411.93
699.00	395.55
700.00	403.35
701.00	404.91
702.00	418.18
703.00	423.64
704.00	444.70
705.00	441.58
706.00	455.62
707.00	440.80
708.00	443.92
709.00	427.54
710.00	427.54
711.00	422.86
712.00	421.30
713.00	433.78
714.00	422.08
715.00	441.58
716.00	458.75
717.00	503.22
718.00	526.62
719.00	497.75
720.00	464.21
721.00	421.30
722.00	418.18
723.00	432.22
724.00	435.34
725.00	429.10
726.00	411.93
727.00	422.08
728.00	421.30
729.00	433.00
730.00	452.50
731.00	467.33
732.00	454.06
733.00	430.66
734.00	434.56
735.00	506.34
736.00	565.63
737.00	576.55
738.00	511.80
739.00	468.89
740.00	448.60
741.00	447.82
742.00	447.04
743.00	475.13
744.00	470.45
745.00	447.04
746.00	408.03
747.00	401.79
748.00	390.87
749.00	409.59
750.00	425.20
751.00	457.18
752.00	444.70
753.00	428.32
754.00	422.08
755.00	440.02
756.00	469.67
757.00	472.01
758.00	483.71
759.00	477.47
760.00	476.69
761.00	465.77
762.00	463.43
763.00	454.06
764.00	433.78
765.00	437.68
766.00	450.94
767.00	431.44
768.00	399.45
769.00	377.61
770.00	408.03
771.00	450.16
772.00	457.18
773.00	483.71
774.00	440.80
775.00	449.38
776.00	417.40
777.00	449.38
778.00	462.65
779.00	504.78
780.00	516.48
781.00	544.56
782.00	539.88
783.00	612.44
784.00	557.83
785.00	522.72
786.00	445.48
787.00	475.91
788.00	463.43
789.00	438.46
790.00	395.55
791.00	404.13
792.00	402.57
793.00	422.86
794.00	448.60
795.00	454.84
796.00	436.90
797.00	428.32
798.00	443.14
799.00	454.06
800.00	449.38
801.00	454.84
802.00	461.09
803.00	463.43
804.00	455.62
805.00	457.18
806.00	455.62
807.00	433.78
808.00	434.56
809.00	445.48
810.00	461.87
811.00	477.47
812.00	440.80
813.00	434.56
814.00	411.93
815.00	432.22
816.00	418.18
817.00	415.06
818.00	404.13
819.00	417.40
820.00	423.64
821.00	458.75
822.00	467.33
823.00	493.85
824.00	483.71
825.00	513.36
826.00	508.68
827.00	499.31
828.00	459.53
829.00	440.80
830.00	444.70
831.00	453.28
832.00	482.93
833.00	483.71
834.00	491.51
835.00	462.65
836.00	469.67
837.00	478.25
838.00	466.55
839.00	440.02
840.00	411.93
841.00	444.70
842.00	466.55
843.00	494.63
844.00	492.29
845.00	460.31
846.00	437.68
847.00	395.55
848.00	413.49
849.00	433.00
850.00	451.72
851.00	459.53
852.00	433.78
853.00	435.34
854.00	429.10
855.00	431.44
856.00	438.46
857.00	442.36
858.00	429.10
859.00	411.15
860.00	400.23
861.00	424.42
862.00	454.06
863.00	454.84
864.00	459.53
865.00	451.72
866.00	464.99
867.00	456.40
868.00	430.66
869.00	379.17
870.00	389.31
871.00	397.89
872.00	442.36
873.00	417.40
874.00	414.27
875.00	397.89
876.00	408.81
877.00	406.47
878.00	414.27
879.00	408.03
880.00	426.76
881.00	428.32
882.00	449.38
883.00	454.06
884.00	464.99
885.00	448.60
886.00	462.65
887.00	469.67
888.00	468.11
889.00	443.14
890.00	427.54
891.00	436.12
892.00	419.74
893.00	408.03
894.00	398.67
895.00	423.64
896.00	452.50
897.00	472.01
898.00	454.84
899.00	454.06
900.00	454.06
901.00	469.67
902.00	488.39
903.00	551.59
904.00	663.15
905.00	755.21
906.00	788.76
907.00	761.45
908.00	726.35
909.00	1035.30
910.00	1087.57
911.00	1136.72
912.00	867.56
913.00	867.56
914.00	821.53
915.00	756.77
916.00	653.79
917.00	585.13
918.00	496.19
919.00	464.21
920.00	446.26
921.00	440.80
922.00	435.34
923.00	434.56
924.00	454.06
925.00	475.91
926.00	470.45
927.00	462.65
928.00	439.24
929.00	463.43
930.00	477.47
931.00	480.59
932.00	457.96
933.00	430.66
934.00	442.36
935.00	447.82
936.00	458.75
937.00	446.26
938.00	454.84
939.00	458.75
940.00	439.24
941.00	444.70
942.00	479.81
943.00	634.29
944.00	1015.79
945.00	1869.31
946.00	2857.01
947.00	3639.53
948.00	3673.08
949.00	3182.35
950.00	2369.40
951.00	1618.87
952.00	1054.02
953.00	709.18
954.00	560.95
955.00	510.24
956.00	486.05
957.00	473.57
958.00	433.78
959.00	447.04
960.00	449.38
961.00	472.01
962.00	456.40
963.00	449.38
964.00	446.26
965.00	471.23
966.00	483.71
967.00	484.49
968.00	450.16
969.00	429.88
970.00	442.36
971.00	458.74
972.00	456.40
973.00	446.26
974.00	439.24
975.00	443.92
976.00	443.14
977.00	431.44
978.00	450.16
979.00	450.16
980.00	475.13
981.00	457.18
982.00	451.72
983.00	444.70
984.00	427.54
985.00	431.44
986.00	423.64
987.00	422.86
988.00	431.44
989.00	433.00
990.00	460.31
991.00	449.38
992.00	449.38
993.00	428.32
994.00	442.36
995.00	418.18
996.00	422.08
997.00	415.06
998.00	439.24
999.00	442.36
1000.00	437.68
1001.00	448.60
1002.00	439.24
1003.00	461.09
1004.00	461.87
1005.00	474.35
1006.00	477.47
1007.00	466.55
1008.00	461.09
1009.00	443.14
1010.00	463.43
1011.00	474.35
1012.00	499.31
1013.00	466.55
1014.00	448.60
1015.00	418.18
1016.00	437.68
1017.00	445.48
1018.00	431.44
1019.00	408.81
1020.00	393.21
1021.00	393.21
1022.00	397.89
1023.00	396.33
1024.00	417.40
1025.00	425.20
1026.00	452.50
1027.00	439.24
1028.00	459.53
1029.00	461.87
1030.00	466.55
1031.00	436.12
1032.00	427.54
1033.00	429.10
1034.00	436.90
1035.00	447.04
1036.00	451.72
1037.00	461.87
1038.00	443.14
1039.00	460.31
1040.00	479.03
1041.00	504.00
1042.00	482.15
1043.00	476.69
1044.00	482.15
1045.00	545.34
1046.00	545.34
1047.00	520.38
1048.00	470.45
1049.00	450.94
1050.00	444.70
1051.00	405.69
1052.00	403.35
1053.00	398.67
1054.00	416.62
1055.00	422.86
1056.00	416.62
1057.00	415.06
1058.00	404.13
1059.00	431.44
1060.00	437.68
1061.00	442.36
1062.00	432.22
1063.00	427.54
1064.00	422.08
1065.00	418.96
1066.00	428.32
1067.00	464.99
1068.00	488.39
1069.00	496.19
1070.00	452.50
1071.00	432.22
1072.00	415.06
1073.00	432.22
1074.00	462.65
1075.00	477.47
1076.00	495.41
1077.00	472.01
1078.00	482.15
1079.00	475.13
1080.00	480.59
1081.00	472.01
1082.00	449.38
1083.00	455.62
1084.00	461.87
1085.00	461.09
1086.00	436.12
1087.00	420.52
1088.00	426.76
1089.00	447.82
1090.00	450.94
1091.00	457.18
1092.00	444.70
1093.00	449.38
1094.00	480.59
1095.00	499.31
1096.00	496.19
1097.00	482.15
1098.00	535.98
1099.00	553.93
1100.00	567.97
1101.00	541.44
1102.00	560.17
1103.00	567.19
1104.00	546.91
1105.00	514.92
1106.00	489.95
1107.00	455.62
1108.00	454.84
1109.00	444.70
1110.00	454.06
1111.00	436.90
1112.00	420.52
1113.00	422.86
1114.00	454.84
1115.00	472.79
1116.00	481.37
1117.00	469.67
1118.00	457.18
1119.00	451.72
1120.00	478.25
1121.00	489.95
1122.00	516.48
1123.00	511.80
1124.00	526.62
1125.00	484.49
1126.00	475.13
1127.00	472.01
1128.00	487.61
1129.00	463.43
1130.00	460.31
1131.00	459.53
1132.00	449.38
1133.00	443.14
1134.00	448.60
1135.00	445.48
1136.00	468.89
1137.00	481.37
1138.00	519.60
1139.00	514.92
1140.00	514.14
1141.00	513.36
1142.00	501.65
1143.00	487.61
1144.00	454.06
1145.00	465.77
1146.00	479.81
1147.00	500.87
1148.00	488.39
1149.00	473.57
1150.00	485.27
1151.00	493.85
1152.00	507.12
1153.00	519.60
1154.00	537.54
1155.00	582.79
1156.00	666.27
1157.00	759.11
1158.00	777.06
1159.00	712.30
1160.00	642.87
1161.00	585.13
1162.00	558.61
1163.00	592.16
1164.00	735.71
1165.00	1011.89
1166.00	1335.67
1167.00	1622.77
1168.00	1668.02
1169.00	1548.65
1170.00	1306.80
1171.00	1091.47
1172.00	874.58
1173.00	713.08
1174.00	608.54
1175.00	576.55
1176.00	564.85
1177.00	581.23
1178.00	579.67
1179.00	581.23
1180.00	584.35
1181.00	592.16
1182.00	608.54
1183.00	639.75
1184.00	638.19
1185.00	642.87
1186.00	640.53
1187.00	668.61
1188.00	670.95
1189.00	689.68
1190.00	749.75
1191.00	838.69
1192.00	904.23
1193.00	932.31
1194.00	922.17
1195.00	887.84
1196.00	837.13
1197.00	819.19
1198.00	849.61
1199.00	974.44
1200.00	1159.35
1201.00	1355.17
1202.00	1463.62
1203.00	1447.23
1204.00	1373.89
1205.00	1265.45
1206.00	1190.55
1207.00	1125.02
1208.00	1111.75
1209.00	1139.06
1210.00	1182.75
1211.00	1235.80
1212.00	1307.58
1213.00	1440.21
1214.00	1624.33
1215.00	1921.58
1216.00	2456.00
1217.00	5515.08
1218.00	20489.83
1219.00	41262.86
1220.00	59430.10
1221.00	65535.00
1222.00	65535.00
1223.00	65535.00
1224.00	65535.00
1225.00	65297.83
1226.00	56069.87
1227.00	40350.84
1228.00	21772.44
1229.00	10668.94
1230.00	5475.29
1231.00	3165.96
1232.00	2246.91
1233.00	1858.39
1234.00	1662.56
1235.00	1639.16
1236.00	2079.18
1237.00	3669.18
1238.00	6832.02
1239.00	11206.48
1240.00	14929.50
1241.00	16048.27
1242.00	14434.08
1243.00	11087.90
1244.00	7652.77
1245.00	4757.53
1246.00	2754.81
1247.00	1705.47
1248.00	1161.69
1249.00	976.00
1250.00	919.83
1251.00	962.74
1252.00	1020.47
1253.00	1130.48
1254.00	1214.74
1255.00	1235.02
1256.00	1159.35
1257.00	1059.48
1258.00	992.39
1259.00	970.54
1260.00	915.15
1261.00	892.52
1262.00	851.95
1263.00	880.82
1264.00	866.00
1265.00	866.78
1266.00	834.01
1267.00	830.11
1268.00	802.80
1269.00	792.66
1270.00	771.60
1271.00	759.11
1272.00	745.85
1273.00	787.98
1274.00	842.59
1275.00	1226.44
1276.00	2869.50
1277.00	6951.39
1278.00	14193.01
1279.00	22332.61
1280.00	27995.15
1281.00	28167.57
1282.00	24075.53
1283.00	17607.07
1284.00	11556.00
1285.00	6630.74
1286.00	3708.97
1287.00	2092.44
1288.00	1345.03
1289.00	956.50
1290.00	848.83
1291.00	820.75
1292.00	852.74
1293.00	883.94
1294.00	899.55
1295.00	1079.77
1296.00	1673.48
1297.00	2861.69
1298.00	4557.80
1299.00	6030.00
1300.00	6675.21
1301.00	6151.71
1302.00	4975.98
1303.00	3578.68
1304.00	2406.07
1305.00	1582.20
1306.00	1191.33
1307.00	1017.35
1308.00	909.69
1309.00	819.19
1310.00	749.75
1311.00	722.45
1312.00	677.98
1313.00	681.88
1314.00	614.00
1315.00	600.74
1316.00	555.49
1317.00	584.35
1318.00	571.09
1319.00	559.39
1320.00	543.00
1321.00	553.15
1322.00	553.15
1323.00	552.37
1324.00	553.15
1325.00	582.79
1326.00	603.86
1327.00	582.79
1328.00	601.52
1329.00	669.39
1330.00	1014.23
1331.00	1875.55
1332.00	3399.24
1333.00	5347.34
1334.00	6818.76
1335.00	7230.70
1336.00	6520.73
1337.00	5148.40
1338.00	3698.83
1339.00	2391.25
1340.00	1494.82
1341.00	978.34
1342.00	782.52
1343.00	705.28
1344.00	685.78
1345.00	658.47
1346.00	651.45
1347.00	635.07
1348.00	610.10
1349.00	606.98
1350.00	631.94
1351.00	666.27
1352.00	683.44
1353.00	686.56
1354.00	698.26
1355.00	709.18
1356.00	755.21
1357.00	836.35
1358.00	1422.27
1359.00	3378.17
1360.00	7488.93
1361.00	13823.20
1362.00	20050.59
1363.00	23474.01
1364.00	22461.34
1365.00	18575.27
1366.00	13392.55
1367.00	8774.67
1368.00	5064.14
1369.00	2977.94
1370.00	1878.67
1371.00	1467.52
1372.00	2079.96
1373.00	5356.71
1374.00	12489.88
1375.00	23613.66
1376.00	34632.13
1377.00	41084.98
1378.00	39931.10
1379.00	33579.67
1380.00	24409.45
1381.00	15868.83
1382.00	8897.16
1383.00	4796.54
1384.00	2647.93
1385.00	1611.07
1386.00	1145.30
1387.00	929.97
1388.00	825.43
1389.00	801.24
1390.00	828.55
1391.00	843.37
1392.00	812.95
1393.00	799.68
1394.00	862.10
1395.00	1064.16
1396.00	1320.84
1397.00	1592.34
1398.00	1746.82
1399.00	1792.07
1400.00	1716.39
1401.00	1642.28
1402.00	2150.95
1403.00	5486.22
1404.00	14392.73
1405.00	29862.12
1406.00	45695.06
1407.00	56404.57
1408.00	58432.25
1409.00	54109.28
1410.00	44233.00
1411.00	31197.78
1412.00	18751.59
1413.00	9986.29
1414.00	5292.73
1415.00	2985.74
1416.00	2394.37
1417.00	3491.30
1418.00	6439.59
1419.00	10943.56
1420.00	15070.71
1421.00	17187.33
1422.00	16160.62
1423.00	13355.88
1424.00	9685.14
1425.00	6424.77
1426.00	3779.19
1427.00	2186.06
1428.00	1403.54
1429.00	1057.92
1430.00	917.49
1431.00	847.27
1432.00	843.37
1433.00	823.87
1434.00	792.66
1435.00	756.77
1436.00	718.54
1437.00	684.22
1438.00	635.85
1439.00	620.24
1440.00	606.20
1441.00	614.78
1442.00	600.74
1443.00	590.60
1444.00	571.87
1445.00	566.41
1446.00	564.85
1447.00	567.97
1448.00	633.50
1449.00	672.51
1450.00	742.73
1451.00	1005.65
1452.00	1846.68
1453.00	3513.14
1454.00	6006.59
1455.00	8479.76
1456.00	9949.62
1457.00	9777.98
1458.00	8399.40
1459.00	6378.74
1460.00	4363.54
1461.00	2688.50
1462.00	1636.03
1463.00	1043.10
1464.00	816.07
1465.00	703.72
1466.00	694.36
1467.00	663.93
1468.00	642.87
1469.00	628.82
1470.00	599.18
1471.00	612.44
1472.00	622.58
1473.00	645.99
1474.00	655.35
1475.00	634.29
1476.00	647.55
1477.00	644.43
1478.00	686.56
1479.00	691.24
1480.00	716.98
1481.00	770.82
1482.00	823.87
1483.00	1213.18
1484.00	3010.71
1485.00	7526.38
1486.00	15527.89
1487.00	25138.13
1488.00	32676.22
1489.00	34660.99
1490.00	31255.51
1491.00	24555.34
1492.00	17154.57
1493.00	10583.90
1494.00	5841.98
1495.00	3179.23
1496.00	1835.76
1497.00	1215.52
1498.00	906.57
1499.00	738.83
1500.00	653.79
1501.00	623.36
1502.00	622.58
1503.00	645.21
1504.00	658.47
1505.00	715.42
1506.00	731.03
1507.00	714.64
1508.00	695.14
1509.00	932.31
1510.00	1750.72
1511.00	3239.30
1512.00	5410.54
1513.00	7376.59
1514.00	8531.25
1515.00	8255.85
1516.00	7126.93
1517.00	5450.33
1518.00	3812.73
1519.00	2420.89
1520.00	1540.85
1521.00	1091.47
1522.00	886.28
1523.00	809.05
1524.00	755.21
1525.00	715.42
1526.00	729.47
1527.00	791.10
1528.00	1018.91
1529.00	2008.18
1530.00	4543.76
1531.00	9133.55
1532.00	15351.57
1533.00	20777.72
1534.00	23133.86
1535.00	21615.63
1536.00	17607.07
1537.00	12784.79
1538.00	8297.98
1539.00	4889.38
1540.00	2835.17
1541.00	1731.22
1542.00	1220.98
1543.00	945.58
1544.00	834.01
1545.00	758.33
1546.00	756.77
1547.00	756.77
1548.00	732.59
1549.00	720.10
1550.00	681.10
1551.00	687.34
1552.00	679.54
1553.00	708.40
1554.00	729.47
1555.00	722.45
1556.00	731.81
1557.00	738.05
1558.00	799.68
1559.00	854.30
1560.00	979.12
1561.00	1686.75
1562.00	4538.30
1563.00	10888.95
1564.00	21337.10
1565.00	32932.12
1566.00	41243.36
1567.00	42600.87
1568.00	38015.76
1569.00	29978.36
1570.00	21155.32
1571.00	13188.14
1572.00	7422.62
1573.00	4347.94
1574.00	3791.67
1575.00	7475.67
1576.00	16898.67
1577.00	32210.45
1578.00	46951.15
1579.00	56431.88
1580.00	57835.42
1581.00	53726.22
1582.00	44754.94
1583.00	32505.36
1584.00	20171.52
1585.00	11004.42
1586.00	5815.45
1587.00	3186.25
1588.00	1959.03
1589.00	1355.95
1590.00	1065.72
1591.00	921.39
1592.00	853.52
1593.00	787.98
1594.00	751.31
1595.00	731.81
1596.00	714.64
1597.00	702.94
1598.00	676.41
1599.00	678.76
1600.00	617.90
1601.00	608.54
1602.00	587.47
1603.00	604.64
1604.00	590.60
1605.00	585.91
1606.00	595.28
1607.00	611.66
1608.00	600.74
1609.00	580.45
1610.00	579.67
1611.00	572.65
1612.00	557.83
1613.00	539.10
1614.00	546.91
1615.00	568.75
1616.00	548.47
1617.00	543.78
1618.00	535.20
1619.00	543.78
1620.00	552.37
1621.00	546.12
1622.00	571.09
1623.00	557.83
1624.00	610.88
1625.00	594.50
1626.00	596.84
1627.00	543.78
1628.00	577.33
1629.00	586.69
1630.00	606.98
1631.00	599.18
1632.00	604.64
1633.00	577.33
1634.00	565.63
1635.00	588.25
1636.00	591.38
1637.00	589.03
1638.00	565.63
1639.00	590.60
1640.00	608.54
1641.00	627.26
1642.00	642.09
1643.00	663.15
1644.00	760.67
1645.00	1334.11
1646.00	3364.91
1647.00	7914.13
1648.00	15666.77
1649.00	24915.78
1650.00	32155.06
1651.00	34218.63
1652.00	31438.08
1653.00	25513.40
1654.00	18624.42
1655.00	11927.37
1656.00	6869.47
1657.00	3788.55
1658.00	2174.36
1659.00	1363.75
1660.00	979.12
1661.00	801.24
1662.00	746.63
1663.00	846.49
1664.00	1443.33
1665.00	2822.69
1666.00	5232.66
1667.00	8284.72
1668.00	10827.32
1669.00	11882.90
1670.00	11201.02
1671.00	9484.63
1672.00	7283.75
1673.00	5030.59
1674.00	3164.40
1675.00	1909.88
1676.00	1228.78
1677.00	855.08
1678.00	674.07
1679.00	595.28
1680.00	552.37
1681.00	551.59
1682.00	518.82
1683.00	496.19
1684.00	483.71
1685.00	486.05
1686.00	505.56
1687.00	506.34
1688.00	507.12
1689.00	536.76
1690.00	533.64
1691.00	547.69
1692.00	511.80
1693.00	509.46
1694.00	496.19
1695.00	478.25
1696.00	482.93
1697.00	516.48
1698.00	533.64
1699.00	535.20
1700.00	500.87
1701.00	511.02
1702.00	496.97
1703.00	521.94
1704.00	543.00
1705.00	567.19
1706.00	572.65
1707.00	546.12
1708.00	602.30
1709.00	855.08
1710.00	1872.43
1711.00	3971.11
1712.00	7511.56
1713.00	11773.67
1714.00	15412.43
1715.00	16780.08
1716.00	15808.76
1717.00	13132.75
1718.00	9902.03
1719.00	6682.23
1720.00	4105.30
1721.00	2410.75
1722.00	1486.24
1723.00	1028.28
1724.00	821.53
1725.00	714.64
1726.00	612.44
1727.00	567.97
1728.00	532.86
1729.00	555.49
1730.00	560.17
1731.00	552.37
1732.00	522.72
1733.00	479.03
1734.00	480.59
1735.00	489.95
1736.00	536.76
1737.00	530.52
1738.00	534.42
1739.00	504.78
1740.00	494.63
1741.00	483.71
1742.00	479.81
1743.00	493.07
1744.00	506.34
1745.00	507.90
1746.00	511.02
1747.00	508.68
1748.00	555.49
1749.00	553.93
1750.00	573.43
1751.00	571.87
1752.00	591.38
1753.00	584.35
1754.00	601.52
1755.00	585.13
1756.00	601.52
1757.00	574.21
1758.00	596.84
1759.00	601.52
1760.00	609.32
1761.00	585.91
1762.00	614.78
1763.00	676.41
1764.00	793.44
1765.00	1455.81
1766.00	3588.04
1767.00	7928.95
1768.00	14768.00
1769.00	22253.03
1770.00	28047.42
1771.00	29666.29
1772.00	27404.55
1773.00	22374.74
1774.00	16472.69
1775.00	10812.49
1776.00	6534.00
1777.00	3736.28
1778.00	2246.91
1779.00	1433.19
1780.00	1057.92
1781.00	819.97
1782.00	734.15
1783.00	669.39
1784.00	644.43
1785.00	610.88
1786.00	579.67
1787.00	588.25
1788.00	606.20
1789.00	608.54
1790.00	593.72
1791.00	576.55
1792.00	738.83
1793.00	1483.90
1794.00	3389.88
1795.00	6664.29
1796.00	11210.39
1797.00	15620.74
1798.00	18216.39
1799.00	17999.50
1800.00	15609.03
1801.00	12204.33
1802.00	8703.67
1803.00	5587.64
1804.00	3390.66
1805.00	2030.02
1806.00	1315.38
1807.00	931.53
1808.00	734.93
1809.00	643.65
1810.00	590.60
1811.00	546.91
1812.00	532.86
1813.00	539.88
1814.00	553.15
1815.00	525.06
1816.00	505.56
1817.00	489.17
1818.00	500.87
1819.00	515.70
1820.00	542.22
1821.00	585.91
1822.00	635.07
1823.00	686.56
1824.00	704.50
1825.00	691.24
1826.00	665.49
1827.00	627.26
1828.00	596.84
1829.00	564.07
1830.00	536.76
1831.00	500.87
1832.00	495.41
1833.00	504.78
1834.00	521.16
1835.00	489.17
1836.00	468.89
1837.00	443.14
1838.00	464.99
1839.00	468.89
1840.00	493.07
1841.00	463.43
1842.00	456.40
1843.00	446.26
1844.00	456.40
1845.00	444.70
1846.00	443.92
1847.00	427.54
1848.00	433.00
1849.00	437.68
1850.00	445.48
1851.00	463.43
1852.00	453.28
1853.00	463.43
1854.00	468.89
1855.00	472.79
1856.00	437.68
1857.00	410.37
1858.00	401.79
1859.00	418.96
1860.00	401.79
1861.00	399.45
1862.00	398.67
1863.00	432.22
1864.00	438.46
1865.00	430.66
1866.00	426.76
1867.00	439.24
1868.00	461.09
1869.00	454.06
1870.00	429.88
1871.00	447.04
1872.00	430.66
1873.00	429.88
1874.00	381.51
1875.00	382.29
1876.00	393.21
1877.00	430.66
1878.00	444.70
1879.00	460.31
1880.00	450.94
1881.00	452.50
1882.00	465.77
1883.00	453.28
1884.00	481.37
1885.00	470.45
1886.00	481.37
1887.00	452.50
1888.00	442.36
1889.00	433.00
1890.00	450.94
1891.00	435.34
1892.00	457.96
1893.00	443.14
1894.00	443.92
1895.00	416.62
1896.00	418.18
1897.00	404.91
1898.00	402.57
1899.00	425.98
1900.00	464.21
1901.00	472.79
1902.00	452.50
1903.00	433.78
1904.00	447.82
1905.00	459.53
1906.00	485.27
1907.00	518.04
1908.00	564.07
1909.00	620.24
1910.00	650.67
1911.00	652.23
1912.00	600.74
1913.00	546.12
1914.00	477.47
1915.00	470.45
1916.00	484.49
1917.00	479.03
1918.00	465.77
1919.00	465.77
1920.00	475.91
1921.00	503.22
1922.00	480.59
1923.00	477.47
1924.00	434.56
1925.00	441.58
1926.00	439.24
1927.00	471.23
1928.00	460.31
1929.00	462.65
1930.00	468.89
1931.00	500.87
1932.00	515.70
1933.00	507.90
1934.00	447.82
1935.00	430.66
1936.00	425.20
1937.00	476.69
1938.00	480.59
1939.00	472.01
1940.00	484.49
1941.00	500.09
1942.00	501.65
1943.00	502.43
1944.00	528.18
1945.00	546.91
1946.00	602.30
1947.00	928.41
1948.00	1989.46
1949.00	3893.09
1950.00	6884.30
1951.00	10213.32
1952.00	13046.15
1953.00	14058.82
1954.00	13281.76
1955.00	11378.90
1956.00	8978.30
1957.00	6705.63
1958.00	4599.93
1959.00	3110.57
1960.00	2035.49
1961.00	1365.31
1962.00	980.68
1963.00	766.14
1964.00	656.13
1965.00	601.52
1966.00	568.75
1967.00	571.87
1968.00	539.88
1969.00	528.96
1970.00	464.21
1971.00	465.77
1972.00	433.00
1973.00	473.57
1974.00	505.56
1975.00	578.89
1976.00	694.36
1977.00	855.86
1978.00	1074.31
1979.00	1226.44
1980.00	1274.81
1981.00	1190.55
1982.00	1073.53
1983.00	949.48
1984.00	846.49
1985.00	745.07
1986.00	673.29
1987.00	608.54
1988.00	564.07
1989.00	528.18
1990.00	498.53
1991.00	496.97
1992.00	515.70
1993.00	526.62
1994.00	516.48
1995.00	480.59
1996.00	450.16
1997.00	457.18
1998.00	468.89
1999.00	500.87
2000.00	509.46
2001.00	504.00
2002.00	504.00
2003.00	481.37
2004.00	498.53
2005.00	503.22
2006.00	507.12
2007.00	489.17
2008.00	482.15
2009.00	505.56
2010.00	507.90
2011.00	506.34
2012.00	517.26
2013.00	539.88
2014.00	557.05
2015.00	534.42
2016.00	532.08
2017.00	550.81
2018.00	612.44
2019.00	672.51
2020.00	777.84
2021.00	944.80
2022.00	1157.78
2023.00	1374.67
2024.00	1870.87
2025.00	3410.16
2026.00	6584.71
2027.00	11558.35
2028.00	18193.76
2029.00	24415.69
2030.00	28720.71
2031.00	29166.20
2032.00	26967.65
2033.00	22980.94
2034.00	18202.35
2035.00	13492.41
2036.00	9220.15
2037.00	6114.26
2038.00	3816.63
2039.00	2388.13
2040.00	1556.46
2041.00	1103.17
2042.00	867.56
2043.00	733.37
2044.00	684.22
2045.00	669.39
2046.00	670.95
2047.00	676.41
>>>>>End Processed Spectral Data<<<<<
