SpectraSuite Data File
++++++++++++++++++++++++++++++++++++
Date: Thu Nov 16 13:55:14 EST 2017
User: cheriyan
Dark Spectrum Present: No
Reference Spectrum Present: No
Number of Sampled Component Spectra: 1
Spectrometers: USB2+H05261
Integration Time (usec): 100000 (USB2+H05261)
Spectra Averaged: 1 (USB2+H05261)
Boxcar Smoothing: 1 (USB2+H05261)
Correct for Electrical Dark: No (USB2+H05261)
Strobe/Lamp Enabled: No (USB2+H05261)
Correct for Detector Non-linearity: No (USB2+H05261)
Correct for Stray Light: No (USB2+H05261)
Number of Pixels in Processed Spectrum: 2048
>>>>>Begin Processed Spectral Data<<<<<
0.00	440.02
1.00	440.02
2.00	389.31
3.00	333.14
4.00	269.16
5.00	243.42
6.00	227.81
7.00	227.81
8.00	237.95
9.00	252.00
10.00	254.34
11.00	262.92
12.00	286.33
13.00	272.28
14.00	265.26
15.00	253.56
16.00	261.36
17.00	280.08
18.00	269.94
19.00	284.77
20.00	287.11
21.00	305.83
22.00	311.29
23.00	315.19
24.00	305.05
25.00	322.99
26.00	326.89
27.00	369.02
28.00	357.32
29.00	366.68
30.00	337.04
31.00	382.29
32.00	389.31
33.00	418.18
34.00	385.41
35.00	393.99
36.00	404.91
37.00	415.84
38.00	429.88
39.00	409.59
40.00	418.18
41.00	415.06
42.00	440.80
43.00	461.87
44.00	440.80
45.00	413.49
46.00	383.07
47.00	420.52
48.00	431.44
49.00	438.46
50.00	407.25
51.00	401.79
52.00	433.78
53.00	443.14
54.00	441.58
55.00	415.06
56.00	420.52
57.00	454.84
58.00	468.11
59.00	443.92
60.00	410.37
61.00	392.43
62.00	404.91
63.00	418.18
64.00	406.47
65.00	424.42
66.00	408.81
67.00	406.47
68.00	387.75
69.00	378.39
70.00	406.47
71.00	408.03
72.00	408.81
73.00	383.07
74.00	359.66
75.00	369.80
76.00	371.36
77.00	378.39
78.00	357.32
79.00	383.85
80.00	400.23
81.00	430.66
82.00	408.03
83.00	404.13
84.00	395.55
85.00	388.53
86.00	370.58
87.00	389.31
88.00	426.76
89.00	440.80
90.00	422.86
91.00	425.98
92.00	426.76
93.00	435.34
94.00	407.25
95.00	396.33
96.00	398.67
97.00	393.21
98.00	417.40
99.00	422.86
100.00	412.71
101.00	391.65
102.00	374.49
103.00	389.31
104.00	388.53
105.00	400.23
106.00	389.31
107.00	393.99
108.00	372.15
109.00	399.45
110.00	415.06
111.00	441.58
112.00	408.81
113.00	419.74
114.00	395.55
115.00	409.59
116.00	386.97
117.00	406.47
118.00	404.91
119.00	413.49
120.00	411.15
121.00	394.77
122.00	388.53
123.00	379.17
124.00	386.19
125.00	399.45
126.00	395.55
127.00	424.42
128.00	415.84
129.00	420.52
130.00	380.73
131.00	398.67
132.00	424.42
133.00	461.87
134.00	440.80
135.00	429.10
136.00	437.68
137.00	443.14
138.00	433.78
139.00	422.08
140.00	403.35
141.00	401.79
142.00	403.35
143.00	426.76
144.00	436.90
145.00	446.26
146.00	465.77
147.00	465.77
148.00	472.79
149.00	459.53
150.00	440.02
151.00	412.71
152.00	403.35
153.00	410.37
154.00	442.36
155.00	451.72
156.00	462.65
157.00	454.84
158.00	439.24
159.00	477.47
160.00	463.43
161.00	475.91
162.00	434.56
163.00	418.18
164.00	416.62
165.00	396.33
166.00	418.18
167.00	401.01
168.00	398.67
169.00	384.63
170.00	372.15
171.00	389.31
172.00	369.80
173.00	386.97
174.00	376.05
175.00	400.23
176.00	419.74
177.00	434.56
178.00	439.24
179.00	416.62
180.00	407.25
181.00	397.89
182.00	411.93
183.00	408.03
184.00	418.18
185.00	394.77
186.00	415.06
187.00	402.57
188.00	401.79
189.00	397.89
190.00	377.61
191.00	408.03
192.00	415.84
193.00	461.09
194.00	490.73
195.00	517.26
196.00	543.78
197.00	516.48
198.00	511.80
199.00	500.87
200.00	493.85
201.00	456.40
202.00	401.01
203.00	424.42
204.00	429.10
205.00	438.46
206.00	390.09
207.00	386.97
208.00	397.11
209.00	449.38
210.00	453.28
211.00	455.62
212.00	425.98
213.00	429.10
214.00	406.47
215.00	411.15
216.00	415.84
217.00	454.84
218.00	440.80
219.00	425.98
220.00	437.68
221.00	437.68
222.00	450.16
223.00	412.71
224.00	400.23
225.00	386.19
226.00	386.97
227.00	408.81
228.00	383.85
229.00	395.55
230.00	384.63
231.00	430.66
232.00	415.84
233.00	427.54
234.00	418.96
235.00	429.88
236.00	421.30
237.00	400.23
238.00	386.19
239.00	366.68
240.00	373.71
241.00	395.55
242.00	412.71
243.00	418.96
244.00	434.56
245.00	427.54
246.00	445.48
247.00	444.70
248.00	469.67
249.00	468.11
250.00	436.90
251.00	407.25
252.00	386.97
253.00	401.79
254.00	431.44
255.00	475.91
256.00	491.51
257.00	449.38
258.00	412.71
259.00	390.09
260.00	428.32
261.00	402.57
262.00	404.13
263.00	410.37
264.00	433.78
265.00	436.90
266.00	476.69
267.00	553.93
268.00	592.16
269.00	569.53
270.00	572.65
271.00	600.74
272.00	629.60
273.00	614.78
274.00	606.98
275.00	616.34
276.00	602.30
277.00	587.47
278.00	550.81
279.00	526.62
280.00	506.34
281.00	483.71
282.00	461.87
283.00	452.50
284.00	426.76
285.00	397.89
286.00	390.87
287.00	417.40
288.00	450.94
289.00	450.16
290.00	447.04
291.00	427.54
292.00	433.00
293.00	397.11
294.00	392.43
295.00	360.44
296.00	382.29
297.00	410.37
298.00	437.68
299.00	465.77
300.00	459.53
301.00	445.48
302.00	411.93
303.00	432.22
304.00	434.56
305.00	470.45
306.00	484.49
307.00	561.73
308.00	617.12
309.00	645.99
310.00	610.10
311.00	591.38
312.00	549.25
313.00	516.48
314.00	448.60
315.00	429.88
316.00	439.24
317.00	470.45
318.00	472.79
319.00	440.80
320.00	433.78
321.00	408.81
322.00	429.88
323.00	415.06
324.00	421.30
325.00	421.30
326.00	390.87
327.00	417.40
328.00	397.11
329.00	422.86
330.00	422.08
331.00	432.22
332.00	439.24
333.00	415.06
334.00	406.47
335.00	393.99
336.00	402.57
337.00	405.69
338.00	406.47
339.00	392.43
340.00	420.52
341.00	429.88
342.00	420.52
343.00	425.20
344.00	417.40
345.00	457.18
346.00	489.95
347.00	614.78
348.00	717.76
349.00	751.31
350.00	724.79
351.00	632.72
352.00	592.94
353.00	553.15
354.00	537.54
355.00	512.58
356.00	484.49
357.00	481.37
358.00	455.62
359.00	450.16
360.00	457.96
361.00	460.31
362.00	454.84
363.00	428.32
364.00	429.88
365.00	431.44
366.00	412.71
367.00	382.29
368.00	402.57
369.00	423.64
370.00	454.84
371.00	425.98
372.00	434.56
373.00	434.56
374.00	423.64
375.00	400.23
376.00	411.93
377.00	418.96
378.00	415.84
379.00	392.43
380.00	403.35
381.00	412.71
382.00	419.74
383.00	391.65
384.00	390.09
385.00	388.53
386.00	411.15
387.00	407.25
388.00	431.44
389.00	440.02
390.00	456.40
391.00	425.98
392.00	386.19
393.00	379.95
394.00	398.67
395.00	415.06
396.00	415.84
397.00	413.49
398.00	411.93
399.00	426.76
400.00	410.37
401.00	415.84
402.00	417.40
403.00	418.18
404.00	420.52
405.00	409.59
406.00	429.88
407.00	435.34
408.00	434.56
409.00	437.68
410.00	431.44
411.00	420.52
412.00	399.45
413.00	401.01
414.00	426.76
415.00	422.08
416.00	425.98
417.00	418.18
418.00	424.42
419.00	433.78
420.00	411.15
421.00	406.47
422.00	411.93
423.00	426.76
424.00	428.32
425.00	418.96
426.00	443.14
427.00	457.18
428.00	478.25
429.00	467.33
430.00	482.15
431.00	467.33
432.00	455.62
433.00	433.78
434.00	436.12
435.00	450.94
436.00	459.53
437.00	451.72
438.00	432.22
439.00	440.02
440.00	435.34
441.00	439.24
442.00	433.00
443.00	461.09
444.00	462.65
445.00	456.40
446.00	446.26
447.00	425.20
448.00	431.44
449.00	418.18
450.00	440.80
451.00	446.26
452.00	440.80
453.00	419.74
454.00	392.43
455.00	395.55
456.00	444.70
457.00	456.40
458.00	454.06
459.00	419.74
460.00	431.44
461.00	412.71
462.00	420.52
463.00	391.65
464.00	413.49
465.00	416.62
466.00	437.68
467.00	435.34
468.00	432.22
469.00	422.86
470.00	408.03
471.00	429.88
472.00	426.76
473.00	428.32
474.00	390.87
475.00	400.23
476.00	411.93
477.00	417.40
478.00	427.54
479.00	411.93
480.00	411.15
481.00	400.23
482.00	414.27
483.00	415.06
484.00	443.14
485.00	452.50
486.00	456.40
487.00	418.96
488.00	397.89
489.00	409.59
490.00	431.44
491.00	436.90
492.00	441.58
493.00	422.86
494.00	425.98
495.00	397.89
496.00	388.53
497.00	395.55
498.00	403.35
499.00	408.81
500.00	414.27
501.00	416.62
502.00	429.10
503.00	415.84
504.00	417.40
505.00	416.62
506.00	437.68
507.00	439.24
508.00	436.12
509.00	411.15
510.00	400.23
511.00	408.03
512.00	417.40
513.00	441.58
514.00	420.52
515.00	415.06
516.00	385.41
517.00	406.47
518.00	394.77
519.00	411.93
520.00	399.45
521.00	404.13
522.00	400.23
523.00	393.21
524.00	404.91
525.00	426.76
526.00	447.82
527.00	448.60
528.00	409.59
529.00	387.75
530.00	376.05
531.00	393.21
532.00	419.74
533.00	408.03
534.00	440.02
535.00	438.46
536.00	471.23
537.00	447.82
538.00	433.78
539.00	408.81
540.00	409.59
541.00	436.90
542.00	457.18
543.00	473.57
544.00	440.80
545.00	432.22
546.00	436.90
547.00	452.50
548.00	444.70
549.00	436.90
550.00	433.78
551.00	436.90
552.00	428.32
553.00	449.38
554.00	461.09
555.00	461.09
556.00	460.31
557.00	458.75
558.00	423.64
559.00	404.91
560.00	401.01
561.00	426.76
562.00	416.62
563.00	416.62
564.00	414.27
565.00	412.71
566.00	414.27
567.00	415.84
568.00	408.81
569.00	396.33
570.00	411.15
571.00	438.46
572.00	448.60
573.00	449.38
574.00	462.65
575.00	492.29
576.00	476.69
577.00	436.90
578.00	425.20
579.00	428.32
580.00	439.24
581.00	433.00
582.00	448.60
583.00	432.22
584.00	435.34
585.00	448.60
586.00	476.69
587.00	442.36
588.00	393.99
589.00	394.77
590.00	399.45
591.00	415.84
592.00	388.53
593.00	393.21
594.00	390.09
595.00	406.47
596.00	443.14
597.00	461.87
598.00	475.91
599.00	443.92
600.00	436.12
601.00	407.25
602.00	420.52
603.00	399.45
604.00	409.59
605.00	414.27
606.00	450.94
607.00	436.12
608.00	433.00
609.00	411.93
610.00	420.52
611.00	404.13
612.00	392.43
613.00	421.30
614.00	443.92
615.00	479.03
616.00	465.77
617.00	472.79
618.00	425.20
619.00	424.42
620.00	404.91
621.00	436.90
622.00	415.84
623.00	429.88
624.00	414.27
625.00	443.14
626.00	463.43
627.00	475.91
628.00	461.09
629.00	422.08
630.00	419.74
631.00	440.02
632.00	462.65
633.00	441.58
634.00	413.49
635.00	376.83
636.00	428.32
637.00	443.14
638.00	447.82
639.00	454.84
640.00	447.82
641.00	454.06
642.00	419.74
643.00	414.27
644.00	415.06
645.00	399.45
646.00	404.91
647.00	418.96
648.00	432.22
649.00	425.98
650.00	437.68
651.00	453.28
652.00	472.01
653.00	450.16
654.00	475.13
655.00	506.34
656.00	514.92
657.00	435.34
658.00	404.91
659.00	382.29
660.00	430.66
661.00	431.44
662.00	463.43
663.00	452.50
664.00	436.12
665.00	437.68
666.00	427.54
667.00	423.64
668.00	422.86
669.00	444.70
670.00	472.01
671.00	469.67
672.00	445.48
673.00	415.84
674.00	398.67
675.00	378.39
676.00	386.97
677.00	391.65
678.00	425.98
679.00	418.96
680.00	411.93
681.00	406.47
682.00	403.35
683.00	416.62
684.00	425.98
685.00	453.28
686.00	422.86
687.00	404.91
688.00	375.27
689.00	386.19
690.00	389.31
691.00	429.88
692.00	451.72
693.00	454.06
694.00	422.86
695.00	427.54
696.00	429.88
697.00	433.78
698.00	410.37
699.00	428.32
700.00	436.90
701.00	453.28
702.00	440.02
703.00	428.32
704.00	425.98
705.00	427.54
706.00	437.68
707.00	435.34
708.00	424.42
709.00	418.96
710.00	408.03
711.00	420.52
712.00	440.02
713.00	437.68
714.00	425.20
715.00	411.15
716.00	436.90
717.00	454.06
718.00	518.04
719.00	518.04
720.00	504.00
721.00	425.20
722.00	405.69
723.00	409.59
724.00	404.13
725.00	410.37
726.00	408.03
727.00	428.32
728.00	412.71
729.00	434.56
730.00	436.90
731.00	443.92
732.00	422.86
733.00	431.44
734.00	458.74
735.00	491.51
736.00	493.85
737.00	490.73
738.00	489.95
739.00	506.34
740.00	499.31
741.00	501.65
742.00	470.45
743.00	463.43
744.00	425.98
745.00	418.96
746.00	425.20
747.00	450.16
748.00	461.87
749.00	455.62
750.00	443.92
751.00	447.04
752.00	449.38
753.00	468.89
754.00	466.55
755.00	465.77
756.00	441.58
757.00	446.26
758.00	457.96
759.00	474.35
760.00	506.34
761.00	502.44
762.00	513.36
763.00	482.15
764.00	485.27
765.00	447.04
766.00	429.10
767.00	407.25
768.00	427.54
769.00	432.22
770.00	438.46
771.00	444.70
772.00	464.21
773.00	480.59
774.00	459.53
775.00	459.53
776.00	440.02
777.00	429.10
778.00	406.47
779.00	468.89
780.00	514.14
781.00	549.25
782.00	539.88
783.00	587.47
784.00	596.84
785.00	528.18
786.00	465.77
787.00	408.03
788.00	420.52
789.00	410.37
790.00	460.31
791.00	478.25
792.00	475.13
793.00	441.58
794.00	418.96
795.00	403.35
796.00	415.06
797.00	436.90
798.00	472.01
799.00	457.96
800.00	447.82
801.00	442.36
802.00	457.96
803.00	481.37
804.00	468.89
805.00	455.62
806.00	411.93
807.00	417.40
808.00	431.44
809.00	461.09
810.00	442.36
811.00	418.18
812.00	418.96
813.00	418.96
814.00	431.44
815.00	402.57
816.00	420.52
817.00	422.86
818.00	443.92
819.00	439.24
820.00	447.04
821.00	474.35
822.00	478.25
823.00	514.92
824.00	509.46
825.00	511.80
826.00	493.07
827.00	473.57
828.00	480.59
829.00	477.47
830.00	515.70
831.00	513.36
832.00	486.83
833.00	468.89
834.00	464.21
835.00	453.28
836.00	428.32
837.00	418.96
838.00	428.32
839.00	420.52
840.00	429.88
841.00	440.80
842.00	461.09
843.00	464.21
844.00	469.67
845.00	457.18
846.00	433.78
847.00	418.96
848.00	432.22
849.00	458.74
850.00	472.79
851.00	447.04
852.00	413.49
853.00	401.01
854.00	430.66
855.00	454.06
856.00	435.34
857.00	418.18
858.00	432.22
859.00	450.16
860.00	452.50
861.00	426.76
862.00	436.12
863.00	448.60
864.00	456.40
865.00	448.60
866.00	448.60
867.00	431.44
868.00	410.37
869.00	408.03
870.00	433.00
871.00	450.94
872.00	426.76
873.00	415.84
874.00	400.23
875.00	390.09
876.00	396.33
877.00	439.24
878.00	462.65
879.00	468.11
880.00	431.44
881.00	447.82
882.00	422.86
883.00	448.60
884.00	437.68
885.00	432.22
886.00	453.28
887.00	462.65
888.00	488.39
889.00	477.47
890.00	478.25
891.00	479.03
892.00	468.89
893.00	430.66
894.00	434.56
895.00	434.56
896.00	493.85
897.00	494.63
898.00	479.03
899.00	424.42
900.00	417.40
901.00	432.22
902.00	457.96
903.00	524.28
904.00	606.20
905.00	779.40
906.00	816.85
907.00	818.41
908.00	728.69
909.00	992.39
910.00	1020.47
911.00	1073.53
912.00	848.05
913.00	891.74
914.00	829.33
915.00	760.67
916.00	638.97
917.00	590.60
918.00	531.30
919.00	519.60
920.00	461.09
921.00	452.50
922.00	415.84
923.00	413.49
924.00	410.37
925.00	412.71
926.00	440.02
927.00	419.74
928.00	408.03
929.00	423.64
930.00	453.28
931.00	461.87
932.00	450.94
933.00	437.68
934.00	433.78
935.00	446.26
936.00	443.92
937.00	444.70
938.00	415.84
939.00	410.37
940.00	419.74
941.00	447.04
942.00	493.85
943.00	631.16
944.00	1092.25
945.00	1916.90
946.00	2970.92
947.00	3648.90
948.00	3722.23
949.00	3165.18
950.00	2373.30
951.00	1621.99
952.00	1056.36
953.00	721.67
954.00	560.17
955.00	512.58
956.00	482.93
957.00	477.47
958.00	486.83
959.00	489.17
960.00	486.05
961.00	460.31
962.00	457.96
963.00	445.48
964.00	435.34
965.00	432.22
966.00	432.22
967.00	423.64
968.00	441.58
969.00	442.36
970.00	454.84
971.00	429.88
972.00	433.00
973.00	430.66
974.00	438.46
975.00	455.62
976.00	466.55
977.00	472.79
978.00	434.56
979.00	429.10
980.00	425.98
981.00	454.84
982.00	443.14
983.00	443.92
984.00	428.32
985.00	433.00
986.00	418.18
987.00	420.52
988.00	439.24
989.00	445.48
990.00	461.87
991.00	440.02
992.00	457.18
993.00	422.86
994.00	424.42
995.00	409.59
996.00	453.28
997.00	463.43
998.00	455.62
999.00	450.94
1000.00	449.38
1001.00	480.59
1002.00	472.01
1003.00	486.83
1004.00	488.39
1005.00	464.99
1006.00	434.56
1007.00	414.27
1008.00	430.66
1009.00	467.33
1010.00	500.87
1011.00	493.85
1012.00	464.21
1013.00	426.76
1014.00	442.36
1015.00	451.72
1016.00	452.50
1017.00	432.22
1018.00	413.49
1019.00	422.08
1020.00	424.42
1021.00	445.48
1022.00	418.96
1023.00	418.18
1024.00	386.19
1025.00	400.23
1026.00	411.93
1027.00	430.66
1028.00	440.80
1029.00	414.27
1030.00	407.25
1031.00	401.79
1032.00	406.47
1033.00	434.56
1034.00	452.50
1035.00	461.09
1036.00	447.82
1037.00	444.70
1038.00	447.82
1039.00	440.02
1040.00	443.14
1041.00	485.27
1042.00	527.40
1043.00	531.30
1044.00	514.92
1045.00	550.81
1046.00	551.59
1047.00	550.03
1048.00	493.85
1049.00	470.45
1050.00	445.48
1051.00	454.84
1052.00	475.91
1053.00	482.93
1054.00	479.03
1055.00	475.13
1056.00	475.13
1057.00	456.40
1058.00	450.16
1059.00	433.00
1060.00	426.76
1061.00	414.27
1062.00	451.72
1063.00	474.35
1064.00	470.45
1065.00	450.16
1066.00	424.42
1067.00	456.40
1068.00	441.58
1069.00	457.96
1070.00	447.82
1071.00	461.87
1072.00	464.21
1073.00	461.09
1074.00	472.79
1075.00	461.09
1076.00	468.11
1077.00	458.75
1078.00	472.79
1079.00	486.05
1080.00	462.65
1081.00	439.24
1082.00	429.10
1083.00	448.60
1084.00	464.99
1085.00	441.58
1086.00	457.18
1087.00	475.13
1088.00	473.57
1089.00	486.83
1090.00	482.15
1091.00	481.37
1092.00	489.17
1093.00	486.05
1094.00	525.84
1095.00	492.29
1096.00	469.67
1097.00	472.01
1098.00	486.05
1099.00	532.08
1100.00	565.63
1101.00	604.64
1102.00	599.96
1103.00	569.53
1104.00	544.56
1105.00	507.12
1106.00	478.25
1107.00	451.72
1108.00	444.70
1109.00	424.42
1110.00	399.45
1111.00	408.81
1112.00	424.42
1113.00	460.31
1114.00	460.31
1115.00	461.87
1116.00	444.70
1117.00	442.36
1118.00	436.90
1119.00	457.18
1120.00	507.12
1121.00	510.24
1122.00	518.04
1123.00	492.29
1124.00	492.29
1125.00	472.01
1126.00	440.80
1127.00	437.68
1128.00	422.08
1129.00	435.34
1130.00	474.35
1131.00	488.39
1132.00	512.58
1133.00	475.13
1134.00	466.55
1135.00	439.24
1136.00	462.65
1137.00	487.61
1138.00	509.46
1139.00	517.26
1140.00	509.46
1141.00	511.80
1142.00	496.97
1143.00	476.69
1144.00	450.16
1145.00	425.98
1146.00	461.87
1147.00	478.25
1148.00	505.56
1149.00	464.99
1150.00	477.47
1151.00	470.45
1152.00	512.58
1153.00	494.63
1154.00	500.09
1155.00	545.34
1156.00	664.71
1157.00	760.67
1158.00	775.50
1159.00	716.20
1160.00	680.32
1161.00	635.07
1162.00	614.00
1163.00	621.80
1164.00	759.11
1165.00	1007.99
1166.00	1339.57
1167.00	1600.15
1168.00	1678.94
1169.00	1517.45
1170.00	1242.82
1171.00	983.03
1172.00	834.79
1173.00	738.05
1174.00	668.61
1175.00	610.10
1176.00	587.47
1177.00	585.13
1178.00	572.65
1179.00	567.97
1180.00	564.85
1181.00	585.13
1182.00	583.57
1183.00	603.86
1184.00	585.13
1185.00	621.02
1186.00	630.38
1187.00	655.35
1188.00	648.33
1189.00	718.54
1190.00	809.83
1191.00	917.49
1192.00	936.21
1193.00	929.97
1194.00	893.30
1195.00	876.14
1196.00	830.89
1197.00	795.78
1198.00	840.25
1199.00	983.02
1200.00	1199.13
1201.00	1377.80
1202.00	1493.26
1203.00	1533.05
1204.00	1462.05
1205.00	1377.02
1206.00	1234.24
1207.00	1171.83
1208.00	1097.71
1209.00	1111.75
1210.00	1139.06
1211.00	1222.54
1212.00	1324.74
1213.00	1481.56
1214.00	1688.31
1215.00	1980.09
1216.00	2511.39
1217.00	5776.44
1218.00	21262.21
1219.00	42013.40
1220.00	59952.82
1221.00	65535.00
1222.00	65535.00
1223.00	65535.00
1224.00	65535.00
1225.00	65332.15
1226.00	56248.53
1227.00	40609.86
1228.00	22001.04
1229.00	10780.51
1230.00	5529.13
1231.00	3194.83
1232.00	2246.13
1233.00	1829.52
1234.00	1644.62
1235.00	1611.07
1236.00	2088.54
1237.00	3785.43
1238.00	7107.43
1239.00	11630.12
1240.00	15295.40
1241.00	16358.78
1242.00	14593.24
1243.00	11248.61
1244.00	7722.21
1245.00	4784.06
1246.00	2798.50
1247.00	1761.64
1248.00	1250.63
1249.00	993.95
1250.00	926.85
1251.00	962.74
1252.00	1095.37
1253.00	1229.56
1254.00	1310.70
1255.00	1300.56
1256.00	1203.82
1257.00	1099.27
1258.00	1015.01
1259.00	979.12
1260.00	922.95
1261.00	881.60
1262.00	862.10
1263.00	847.27
1264.00	832.45
1265.00	779.40
1266.00	777.06
1267.00	787.98
1268.00	792.66
1269.00	781.74
1270.00	762.23
1271.00	772.38
1272.00	787.20
1273.00	827.77
1274.00	880.82
1275.00	1276.37
1276.00	2973.26
1277.00	7236.16
1278.00	14622.11
1279.00	22940.37
1280.00	28601.35
1281.00	28765.96
1282.00	24453.14
1283.00	17873.89
1284.00	11662.11
1285.00	6745.42
1286.00	3737.84
1287.00	2122.87
1288.00	1349.71
1289.00	967.42
1290.00	844.15
1291.00	835.57
1292.00	883.16
1293.00	919.05
1294.00	921.39
1295.00	1103.95
1296.00	1732.00
1297.00	2946.73
1298.00	4660.01
1299.00	6153.27
1300.00	6774.29
1301.00	6283.56
1302.00	5066.48
1303.00	3691.81
1304.00	2476.29
1305.00	1634.47
1306.00	1192.11
1307.00	969.76
1308.00	870.68
1309.00	802.02
1310.00	760.67
1311.00	701.38
1312.00	652.23
1313.00	614.78
1314.00	607.76
1315.00	593.72
1316.00	568.75
1317.00	571.09
1318.00	560.95
1319.00	580.45
1320.00	571.09
1321.00	571.09
1322.00	560.95
1323.00	537.54
1324.00	536.76
1325.00	538.32
1326.00	560.17
1327.00	556.27
1328.00	569.53
1329.00	617.12
1330.00	1001.75
1331.00	1914.56
1332.00	3536.55
1333.00	5430.82
1334.00	6944.37
1335.00	7298.57
1336.00	6624.50
1337.00	5217.83
1338.00	3769.82
1339.00	2451.32
1340.00	1539.29
1341.00	1041.54
1342.00	796.56
1343.00	685.00
1344.00	638.19
1345.00	621.80
1346.00	635.85
1347.00	638.97
1348.00	644.43
1349.00	649.11
1350.00	625.70
1351.00	644.43
1352.00	674.85
1353.00	713.86
1354.00	709.18
1355.00	707.62
1356.00	768.48
1357.00	868.34
1358.00	1408.22
1359.00	3397.68
1360.00	7672.28
1361.00	14148.54
1362.00	20446.14
1363.00	23892.19
1364.00	22845.19
1365.00	18854.58
1366.00	13585.25
1367.00	8897.16
1368.00	5199.89
1369.00	2982.62
1370.00	1888.81
1371.00	1442.55
1372.00	2101.80
1373.00	5476.85
1374.00	12926.00
1375.00	24373.56
1376.00	35601.11
1377.00	41947.86
1378.00	40758.09
1379.00	34150.76
1380.00	24877.55
1381.00	16056.86
1382.00	9114.83
1383.00	4937.75
1384.00	2769.63
1385.00	1655.54
1386.00	1176.51
1387.00	970.54
1388.00	858.98
1389.00	844.93
1390.00	816.85
1391.00	851.95
1392.00	809.83
1393.00	831.67
1394.00	904.23
1395.00	1101.61
1396.00	1387.16
1397.00	1627.45
1398.00	1766.32
1399.00	1801.43
1400.00	1730.44
1401.00	1657.10
1402.00	2161.87
1403.00	5588.42
1404.00	14873.32
1405.00	30690.66
1406.00	46566.52
1407.00	57006.09
1408.00	58784.90
1409.00	54629.66
1410.00	44770.55
1411.00	31645.60
1412.00	18845.99
1413.00	10003.45
1414.00	5299.75
1415.00	3034.89
1416.00	2473.17
1417.00	3604.42
1418.00	6619.82
1419.00	11133.15
1420.00	15369.52
1421.00	17431.53
1422.00	16389.21
1423.00	13435.46
1424.00	9711.66
1425.00	6403.71
1426.00	3807.27
1427.00	2286.70
1428.00	1451.91
1429.00	1068.06
1430.00	875.36
1431.00	823.87
1432.00	777.84
1433.00	791.88
1434.00	794.22
1435.00	791.88
1436.00	759.89
1437.00	702.16
1438.00	670.95
1439.00	664.71
1440.00	653.01
1441.00	672.51
1442.00	616.34
1443.00	616.34
1444.00	546.12
1445.00	582.79
1446.00	585.13
1447.00	649.89
1448.00	638.19
1449.00	675.63
1450.00	690.46
1451.00	990.83
1452.00	1873.21
1453.00	3650.46
1454.00	6264.05
1455.00	8776.23
1456.00	10211.76
1457.00	9884.86
1458.00	8544.52
1459.00	6462.22
1460.00	4496.17
1461.00	2705.66
1462.00	1648.52
1463.00	1096.93
1464.00	824.65
1465.00	723.23
1466.00	670.95
1467.00	644.43
1468.00	617.12
1469.00	607.76
1470.00	618.68
1471.00	614.78
1472.00	614.00
1473.00	602.30
1474.00	603.86
1475.00	602.30
1476.00	615.56
1477.00	651.45
1478.00	692.02
1479.00	729.47
1480.00	726.35
1481.00	744.29
1482.00	809.83
1483.00	1266.23
1484.00	3163.62
1485.00	7738.59
1486.00	15868.83
1487.00	25681.92
1488.00	33318.31
1489.00	35280.46
1490.00	31632.34
1491.00	24846.35
1492.00	17319.18
1493.00	10710.29
1494.00	5901.27
1495.00	3219.02
1496.00	1880.23
1497.00	1245.95
1498.00	926.07
1499.00	761.45
1500.00	684.22
1501.00	636.63
1502.00	615.56
1503.00	599.96
1504.00	605.42
1505.00	638.97
1506.00	641.31
1507.00	655.35
1508.00	692.80
1509.00	962.74
1510.00	1756.18
1511.00	3296.25
1512.00	5521.32
1513.00	7630.15
1514.00	8797.29
1515.00	8521.89
1516.00	7229.91
1517.00	5436.28
1518.00	3739.40
1519.00	2398.27
1520.00	1581.42
1521.00	1124.24
1522.00	875.36
1523.00	714.64
1524.00	685.78
1525.00	673.29
1526.00	726.35
1527.00	765.36
1528.00	1011.89
1529.00	2045.63
1530.00	4666.25
1531.00	9380.09
1532.00	15687.83
1533.00	21163.12
1534.00	23580.12
1535.00	22115.72
1536.00	18115.75
1537.00	13087.50
1538.00	8437.63
1539.00	4884.70
1540.00	2803.18
1541.00	1691.43
1542.00	1176.51
1543.00	926.07
1544.00	775.50
1545.00	691.24
1546.00	658.47
1547.00	680.32
1548.00	683.44
1549.00	699.04
1550.00	706.84
1551.00	699.04
1552.00	685.78
1553.00	676.41
1554.00	706.06
1555.00	738.05
1556.00	755.21
1557.00	753.65
1558.00	800.46
1559.00	858.98
1560.00	976.78
1561.00	1697.67
1562.00	4546.88
1563.00	11011.44
1564.00	21696.77
1565.00	33630.38
1566.00	42089.07
1567.00	43646.31
1568.00	39007.37
1569.00	30799.89
1570.00	21617.19
1571.00	13339.49
1572.00	7529.50
1573.00	4389.28
1574.00	3917.28
1575.00	7659.01
1576.00	17264.57
1577.00	32837.72
1578.00	47648.63
1579.00	57002.97
1580.00	58227.85
1581.00	54209.15
1582.00	45292.49
1583.00	32886.09
1584.00	20344.72
1585.00	11051.23
1586.00	5919.21
1587.00	3234.62
1588.00	1996.48
1589.00	1368.43
1590.00	1099.27
1591.00	911.25
1592.00	837.91
1593.00	767.70
1594.00	735.71
1595.00	702.16
1596.00	713.08
1597.00	706.06
1598.00	683.44
1599.00	656.13
1600.00	656.13
1601.00	654.57
1602.00	628.04
1603.00	617.12
1604.00	584.35
1605.00	595.28
1606.00	585.91
1607.00	585.13
1608.00	560.17
1609.00	546.12
1610.00	556.27
1611.00	559.39
1612.00	560.95
1613.00	548.47
1614.00	532.86
1615.00	543.78
1616.00	567.19
1617.00	574.99
1618.00	583.57
1619.00	573.43
1620.00	565.63
1621.00	553.15
1622.00	560.17
1623.00	567.97
1624.00	571.87
1625.00	560.17
1626.00	549.25
1627.00	550.81
1628.00	550.81
1629.00	563.29
1630.00	563.29
1631.00	574.99
1632.00	589.82
1633.00	592.16
1634.00	573.43
1635.00	574.21
1636.00	568.75
1637.00	606.98
1638.00	610.10
1639.00	599.96
1640.00	620.24
1641.00	631.16
1642.00	683.44
1643.00	703.72
1644.00	784.08
1645.00	1303.68
1646.00	3421.08
1647.00	8202.80
1648.00	16134.87
1649.00	25408.86
1650.00	32562.31
1651.00	34741.35
1652.00	31865.61
1653.00	25978.39
1654.00	18959.12
1655.00	12261.29
1656.00	7050.47
1657.00	3889.97
1658.00	2257.84
1659.00	1437.87
1660.00	1032.96
1661.00	845.71
1662.00	779.40
1663.00	837.91
1664.00	1415.24
1665.00	2814.10
1666.00	5330.18
1667.00	8417.35
1668.00	11131.59
1669.00	12230.08
1670.00	11543.52
1671.00	9716.34
1672.00	7325.10
1673.00	5046.98
1674.00	3079.36
1675.00	1899.73
1676.00	1206.16
1677.00	887.84
1678.00	692.80
1679.00	643.65
1680.00	602.30
1681.00	582.01
1682.00	551.59
1683.00	509.46
1684.00	518.04
1685.00	513.36
1686.00	519.60
1687.00	500.87
1688.00	511.02
1689.00	474.35
1690.00	483.71
1691.00	464.21
1692.00	512.58
1693.00	521.16
1694.00	504.78
1695.00	517.26
1696.00	511.02
1697.00	555.49
1698.00	552.37
1699.00	567.19
1700.00	578.11
1701.00	550.81
1702.00	564.07
1703.00	557.83
1704.00	588.25
1705.00	578.11
1706.00	574.21
1707.00	608.54
1708.00	649.89
1709.00	925.29
1710.00	1935.62
1711.00	4089.70
1712.00	7659.79
1713.00	11979.64
1714.00	15626.98
1715.00	17096.05
1716.00	16052.17
1717.00	13415.95
1718.00	10104.87
1719.00	6873.37
1720.00	4225.45
1721.00	2471.61
1722.00	1515.11
1723.00	1004.09
1724.00	777.06
1725.00	671.73
1726.00	621.02
1727.00	582.01
1728.00	545.34
1729.00	550.81
1730.00	555.49
1731.00	563.29
1732.00	537.54
1733.00	528.96
1734.00	516.48
1735.00	507.12
1736.00	518.04
1737.00	524.28
1738.00	521.94
1739.00	505.56
1740.00	499.31
1741.00	511.80
1742.00	480.59
1743.00	470.45
1744.00	486.83
1745.00	522.72
1746.00	528.18
1747.00	519.60
1748.00	521.94
1749.00	532.86
1750.00	556.27
1751.00	589.81
1752.00	604.64
1753.00	596.84
1754.00	593.72
1755.00	603.08
1756.00	606.98
1757.00	592.94
1758.00	577.33
1759.00	592.16
1760.00	588.25
1761.00	578.11
1762.00	582.79
1763.00	627.26
1764.00	777.06
1765.00	1459.71
1766.00	3670.74
1767.00	8042.08
1768.00	15052.77
1769.00	22970.80
1770.00	28942.28
1771.00	30518.25
1772.00	27991.25
1773.00	22873.28
1774.00	16845.62
1775.00	11000.52
1776.00	6576.13
1777.00	3797.13
1778.00	2245.35
1779.00	1451.91
1780.00	1053.24
1781.00	839.47
1782.00	741.17
1783.00	701.38
1784.00	691.24
1785.00	641.31
1786.00	595.28
1787.00	571.87
1788.00	596.84
1789.00	628.82
1790.00	638.19
1791.00	641.31
1792.00	770.82
1793.00	1582.20
1794.00	3563.86
1795.00	6884.30
1796.00	11392.17
1797.00	15838.41
1798.00	18479.31
1799.00	18365.40
1800.00	15946.07
1801.00	12468.03
1802.00	8830.84
1803.00	5599.34
1804.00	3374.27
1805.00	2014.42
1806.00	1311.48
1807.00	940.90
1808.00	733.37
1809.00	629.60
1810.00	546.12
1811.00	556.27
1812.00	571.87
1813.00	604.64
1814.00	577.33
1815.00	543.78
1816.00	519.60
1817.00	494.63
1818.00	503.22
1819.00	507.12
1820.00	546.12
1821.00	585.91
1822.00	638.19
1823.00	687.34
1824.00	708.40
1825.00	699.82
1826.00	663.93
1827.00	617.12
1828.00	576.55
1829.00	504.78
1830.00	504.78
1831.00	494.63
1832.00	479.81
1833.00	419.74
1834.00	448.60
1835.00	473.57
1836.00	514.14
1837.00	462.65
1838.00	456.40
1839.00	440.02
1840.00	459.53
1841.00	477.47
1842.00	484.49
1843.00	479.03
1844.00	479.81
1845.00	481.37
1846.00	469.67
1847.00	454.06
1848.00	447.04
1849.00	479.03
1850.00	479.81
1851.00	462.65
1852.00	443.14
1853.00	441.58
1854.00	431.44
1855.00	433.78
1856.00	433.78
1857.00	467.33
1858.00	451.72
1859.00	457.18
1860.00	454.84
1861.00	461.09
1862.00	442.36
1863.00	440.80
1864.00	434.56
1865.00	438.46
1866.00	411.93
1867.00	429.10
1868.00	454.84
1869.00	479.81
1870.00	489.95
1871.00	485.27
1872.00	470.45
1873.00	449.38
1874.00	418.96
1875.00	424.42
1876.00	397.89
1877.00	429.88
1878.00	442.36
1879.00	475.13
1880.00	473.57
1881.00	461.09
1882.00	472.79
1883.00	451.72
1884.00	460.31
1885.00	470.45
1886.00	496.19
1887.00	484.49
1888.00	463.43
1889.00	472.79
1890.00	479.03
1891.00	492.29
1892.00	457.96
1893.00	447.04
1894.00	435.34
1895.00	459.53
1896.00	485.27
1897.00	483.71
1898.00	453.28
1899.00	412.71
1900.00	411.93
1901.00	418.18
1902.00	447.82
1903.00	473.57
1904.00	473.57
1905.00	496.97
1906.00	496.97
1907.00	546.91
1908.00	607.76
1909.00	661.59
1910.00	699.82
1911.00	661.59
1912.00	618.68
1913.00	555.49
1914.00	511.02
1915.00	504.00
1916.00	496.97
1917.00	504.78
1918.00	476.69
1919.00	473.57
1920.00	468.89
1921.00	486.83
1922.00	469.67
1923.00	452.50
1924.00	437.68
1925.00	445.48
1926.00	450.94
1927.00	434.56
1928.00	446.26
1929.00	442.36
1930.00	459.53
1931.00	453.28
1932.00	494.63
1933.00	482.15
1934.00	481.37
1935.00	467.33
1936.00	485.27
1937.00	511.02
1938.00	481.37
1939.00	483.71
1940.00	470.45
1941.00	489.17
1942.00	493.07
1943.00	504.78
1944.00	537.54
1945.00	553.15
1946.00	623.36
1947.00	980.68
1948.00	2026.90
1949.00	3996.85
1950.00	7082.46
1951.00	10627.59
1952.00	13398.79
1953.00	14421.60
1954.00	13601.63
1955.00	11736.23
1956.00	9255.26
1957.00	6827.34
1958.00	4717.74
1959.00	3203.41
1960.00	2111.16
1961.00	1426.95
1962.00	1008.77
1963.00	770.04
1964.00	655.35
1965.00	587.47
1966.00	579.67
1967.00	551.59
1968.00	550.81
1969.00	525.84
1970.00	514.14
1971.00	498.53
1972.00	489.17
1973.00	525.84
1974.00	562.51
1975.00	653.79
1976.00	743.51
1977.00	921.39
1978.00	1114.88
1979.00	1267.01
1980.00	1324.74
1981.00	1288.85
1982.00	1181.19
1983.00	1004.09
1984.00	823.09
1985.00	677.19
1986.00	623.36
1987.00	594.50
1988.00	559.39
1989.00	525.84
1990.00	529.74
1991.00	511.02
1992.00	501.65
1993.00	463.43
1994.00	468.11
1995.00	450.16
1996.00	431.44
1997.00	446.26
1998.00	476.69
1999.00	507.12
2000.00	480.59
2001.00	482.93
2002.00	477.47
2003.00	504.78
2004.00	486.83
2005.00	470.45
2006.00	498.53
2007.00	508.68
2008.00	527.40
2009.00	519.60
2010.00	512.58
2011.00	496.97
2012.00	521.94
2013.00	546.12
2014.00	565.63
2015.00	534.42
2016.00	528.96
2017.00	538.32
2018.00	571.09
2019.00	644.43
2020.00	766.14
2021.00	962.74
2022.00	1173.39
2023.00	1433.97
2024.00	1935.62
2025.00	3520.17
2026.00	6750.11
2027.00	11957.80
2028.00	18711.80
2029.00	25067.92
2030.00	29460.32
2031.00	30004.89
2032.00	27949.12
2033.00	23854.74
2034.00	18980.96
2035.00	13926.19
2036.00	9447.18
2037.00	6227.39
2038.00	3925.08
2039.00	2483.31
2040.00	1579.08
2041.00	1121.90
2042.00	890.96
2043.00	768.48
2044.00	716.98
2045.00	653.79
2046.00	635.85
2047.00	624.92
>>>>>End Processed Spectral Data<<<<<
