SpectraSuite Data File
++++++++++++++++++++++++++++++++++++
Date: Thu Nov 16 13:55:22 EST 2017
User: cheriyan
Dark Spectrum Present: No
Reference Spectrum Present: No
Number of Sampled Component Spectra: 1
Spectrometers: USB2+H05261
Integration Time (usec): 100000 (USB2+H05261)
Spectra Averaged: 1 (USB2+H05261)
Boxcar Smoothing: 1 (USB2+H05261)
Correct for Electrical Dark: No (USB2+H05261)
Strobe/Lamp Enabled: No (USB2+H05261)
Correct for Detector Non-linearity: No (USB2+H05261)
Correct for Stray Light: No (USB2+H05261)
Number of Pixels in Processed Spectrum: 2048
>>>>>Begin Processed Spectral Data<<<<<
0.00	346.40
1.00	346.40
2.00	330.02
3.00	305.05
4.00	265.26
5.00	234.05
6.00	211.43
7.00	230.15
8.00	238.73
9.00	268.38
10.00	262.92
11.00	274.62
12.00	237.17
13.00	223.91
14.00	213.77
15.00	252.78
16.00	250.44
17.00	247.32
18.00	244.98
19.00	251.22
20.00	268.38
21.00	240.30
22.00	262.14
23.00	288.67
24.00	326.11
25.00	308.17
26.00	318.31
27.00	357.32
28.00	377.61
29.00	385.41
30.00	362.00
31.00	383.85
32.00	391.65
33.00	411.15
34.00	422.86
35.00	413.49
36.00	405.69
37.00	409.59
38.00	414.27
39.00	414.27
40.00	406.47
41.00	377.61
42.00	416.62
43.00	429.10
44.00	445.48
45.00	403.35
46.00	406.47
47.00	393.21
48.00	404.91
49.00	386.97
50.00	440.02
51.00	450.94
52.00	508.68
53.00	478.25
54.00	478.25
55.00	431.44
56.00	435.34
57.00	438.46
58.00	436.90
59.00	417.40
60.00	362.00
61.00	370.58
62.00	400.23
63.00	423.64
64.00	407.25
65.00	401.01
66.00	405.69
67.00	399.45
68.00	379.95
69.00	368.24
70.00	380.73
71.00	386.97
72.00	378.39
73.00	358.88
74.00	350.30
75.00	367.46
76.00	383.07
77.00	413.49
78.00	404.91
79.00	394.77
80.00	407.25
81.00	413.49
82.00	425.20
83.00	393.21
84.00	402.57
85.00	407.25
86.00	430.66
87.00	458.75
88.00	475.13
89.00	457.96
90.00	428.32
91.00	404.91
92.00	393.21
93.00	397.89
94.00	386.19
95.00	392.43
96.00	393.99
97.00	416.62
98.00	401.79
99.00	396.33
100.00	391.65
101.00	394.77
102.00	413.49
103.00	411.15
104.00	420.52
105.00	416.62
106.00	449.38
107.00	451.72
108.00	417.40
109.00	397.11
110.00	411.93
111.00	430.66
112.00	418.96
113.00	408.81
114.00	407.25
115.00	401.01
116.00	401.01
117.00	408.03
118.00	389.31
119.00	414.27
120.00	420.52
121.00	429.88
122.00	371.36
123.00	365.90
124.00	361.22
125.00	389.31
126.00	379.17
127.00	401.01
128.00	426.76
129.00	456.40
130.00	460.31
131.00	427.54
132.00	414.27
133.00	405.69
134.00	397.11
135.00	387.75
136.00	376.83
137.00	414.27
138.00	417.40
139.00	433.00
140.00	420.52
141.00	424.42
142.00	428.32
143.00	436.12
144.00	464.21
145.00	494.63
146.00	530.52
147.00	516.48
148.00	475.91
149.00	428.32
150.00	418.96
151.00	433.00
152.00	440.02
153.00	422.86
154.00	422.08
155.00	407.25
156.00	408.03
157.00	406.47
158.00	420.52
159.00	407.25
160.00	388.53
161.00	386.19
162.00	409.59
163.00	442.36
164.00	430.66
165.00	428.32
166.00	409.59
167.00	411.15
168.00	392.43
169.00	396.33
170.00	413.49
171.00	415.84
172.00	389.31
173.00	360.44
174.00	380.73
175.00	406.47
176.00	442.36
177.00	423.64
178.00	430.66
179.00	410.37
180.00	417.40
181.00	411.15
182.00	425.20
183.00	436.90
184.00	428.32
185.00	429.88
186.00	419.74
187.00	415.84
188.00	387.75
189.00	393.99
190.00	398.67
191.00	415.84
192.00	446.26
193.00	475.13
194.00	504.78
195.00	511.80
196.00	521.16
197.00	516.48
198.00	492.29
199.00	442.36
200.00	420.52
201.00	413.49
202.00	406.47
203.00	383.07
204.00	394.77
205.00	413.49
206.00	430.66
207.00	413.49
208.00	411.15
209.00	400.23
210.00	396.33
211.00	401.01
212.00	429.10
213.00	444.70
214.00	431.44
215.00	440.80
216.00	415.84
217.00	438.46
218.00	414.27
219.00	429.10
220.00	430.66
221.00	411.15
222.00	383.07
223.00	366.68
224.00	377.61
225.00	389.31
226.00	395.55
227.00	388.53
228.00	390.87
229.00	383.85
230.00	390.87
231.00	404.91
232.00	391.65
233.00	383.85
234.00	411.93
235.00	418.18
236.00	440.80
237.00	432.22
238.00	441.58
239.00	443.92
240.00	406.47
241.00	392.43
242.00	388.53
243.00	401.01
244.00	406.47
245.00	405.69
246.00	401.01
247.00	441.58
248.00	433.00
249.00	436.90
250.00	379.95
251.00	384.63
252.00	393.99
253.00	412.71
254.00	425.20
255.00	421.30
256.00	438.46
257.00	421.30
258.00	433.78
259.00	428.32
260.00	417.40
261.00	425.20
262.00	426.76
263.00	459.53
264.00	461.87
265.00	486.83
266.00	505.56
267.00	544.56
268.00	563.29
269.00	575.77
270.00	564.07
271.00	552.37
272.00	584.35
273.00	614.00
274.00	639.75
275.00	628.04
276.00	579.67
277.00	540.66
278.00	528.18
279.00	527.40
280.00	486.83
281.00	419.74
282.00	404.91
283.00	434.56
284.00	436.90
285.00	414.27
286.00	411.93
287.00	422.08
288.00	441.58
289.00	434.56
290.00	418.18
291.00	404.91
292.00	418.18
293.00	440.02
294.00	443.92
295.00	415.06
296.00	404.91
297.00	389.31
298.00	399.45
299.00	370.58
300.00	379.17
301.00	372.15
302.00	393.21
303.00	394.77
304.00	400.23
305.00	418.18
306.00	447.04
307.00	535.98
308.00	632.72
309.00	676.41
310.00	626.48
311.00	575.77
312.00	519.60
313.00	493.07
314.00	449.38
315.00	454.84
316.00	464.99
317.00	476.69
318.00	460.31
319.00	481.37
320.00	459.53
321.00	467.33
322.00	440.80
323.00	436.90
324.00	435.34
325.00	447.04
326.00	439.24
327.00	439.24
328.00	410.37
329.00	424.42
330.00	429.10
331.00	457.18
332.00	449.38
333.00	436.12
334.00	409.59
335.00	418.18
336.00	419.74
337.00	424.42
338.00	420.52
339.00	443.14
340.00	450.16
341.00	457.18
342.00	427.54
343.00	440.80
344.00	460.31
345.00	507.12
346.00	536.76
347.00	592.16
348.00	668.61
349.00	726.35
350.00	724.01
351.00	667.05
352.00	589.81
353.00	550.81
354.00	530.52
355.00	557.05
356.00	539.10
357.00	502.44
358.00	438.46
359.00	425.20
360.00	443.92
361.00	445.48
362.00	439.24
363.00	430.66
364.00	406.47
365.00	416.62
366.00	415.06
367.00	457.18
368.00	468.89
369.00	447.82
370.00	443.14
371.00	415.06
372.00	403.35
373.00	378.39
374.00	365.12
375.00	364.34
376.00	390.87
377.00	408.81
378.00	411.93
379.00	410.37
380.00	401.01
381.00	401.01
382.00	390.87
383.00	403.35
384.00	408.81
385.00	414.27
386.00	419.74
387.00	435.34
388.00	425.20
389.00	422.86
390.00	408.03
391.00	429.10
392.00	419.74
393.00	435.34
394.00	413.49
395.00	425.20
396.00	454.84
397.00	453.28
398.00	455.62
399.00	411.15
400.00	423.64
401.00	413.49
402.00	436.90
403.00	439.24
404.00	444.70
405.00	442.36
406.00	432.22
407.00	428.32
408.00	394.77
409.00	407.25
410.00	398.67
411.00	408.81
412.00	409.59
413.00	411.15
414.00	428.32
415.00	432.22
416.00	447.04
417.00	447.82
418.00	433.78
419.00	423.64
420.00	404.13
421.00	401.79
422.00	390.87
423.00	411.15
424.00	394.77
425.00	397.11
426.00	413.49
427.00	441.58
428.00	447.04
429.00	432.22
430.00	418.96
431.00	418.96
432.00	403.35
433.00	429.10
434.00	422.08
435.00	436.12
436.00	407.25
437.00	410.37
438.00	386.19
439.00	399.45
440.00	422.08
441.00	433.00
442.00	450.94
443.00	447.82
444.00	462.65
445.00	451.72
446.00	427.54
447.00	422.86
448.00	414.27
449.00	420.52
450.00	415.06
451.00	393.99
452.00	388.53
453.00	397.89
454.00	419.74
455.00	427.54
456.00	425.20
457.00	419.74
458.00	414.27
459.00	405.69
460.00	384.63
461.00	392.43
462.00	396.33
463.00	426.76
464.00	411.15
465.00	423.64
466.00	422.08
467.00	446.26
468.00	427.54
469.00	418.96
470.00	398.67
471.00	397.89
472.00	403.35
473.00	422.08
474.00	428.32
475.00	427.54
476.00	416.62
477.00	417.40
478.00	415.06
479.00	433.78
480.00	452.50
481.00	443.14
482.00	422.08
483.00	396.33
484.00	408.03
485.00	422.08
486.00	410.37
487.00	365.90
488.00	358.88
489.00	358.88
490.00	397.11
491.00	413.49
492.00	443.92
493.00	453.28
494.00	440.80
495.00	429.10
496.00	402.57
497.00	407.25
498.00	424.42
499.00	428.32
500.00	421.30
501.00	422.08
502.00	452.50
503.00	432.22
504.00	410.37
505.00	394.77
506.00	429.10
507.00	418.18
508.00	429.88
509.00	412.71
510.00	428.32
511.00	412.71
512.00	414.27
513.00	399.45
514.00	401.79
515.00	415.06
516.00	407.25
517.00	411.15
518.00	385.41
519.00	402.57
520.00	414.27
521.00	429.88
522.00	432.22
523.00	396.33
524.00	401.01
525.00	408.03
526.00	418.96
527.00	416.62
528.00	404.91
529.00	416.62
530.00	414.27
531.00	441.58
532.00	455.62
533.00	440.80
534.00	440.80
535.00	433.00
536.00	449.38
537.00	443.14
538.00	443.14
539.00	464.21
540.00	457.96
541.00	440.80
542.00	403.35
543.00	416.62
544.00	448.60
545.00	468.11
546.00	450.94
547.00	438.46
548.00	436.90
549.00	449.38
550.00	440.80
551.00	441.58
552.00	422.86
553.00	419.74
554.00	418.18
555.00	452.50
556.00	455.62
557.00	436.90
558.00	402.57
559.00	432.22
560.00	447.82
561.00	446.26
562.00	387.75
563.00	380.73
564.00	374.49
565.00	399.45
566.00	411.15
567.00	427.54
568.00	426.76
569.00	420.52
570.00	432.22
571.00	464.99
572.00	462.65
573.00	482.15
574.00	452.50
575.00	443.14
576.00	405.69
577.00	379.95
578.00	404.91
579.00	402.57
580.00	436.90
581.00	391.65
582.00	399.45
583.00	409.59
584.00	428.32
585.00	442.36
586.00	433.78
587.00	453.28
588.00	430.66
589.00	447.04
590.00	435.34
591.00	437.68
592.00	407.25
593.00	418.96
594.00	423.64
595.00	447.82
596.00	456.40
597.00	464.99
598.00	467.33
599.00	449.38
600.00	451.72
601.00	426.76
602.00	406.47
603.00	372.15
604.00	351.08
605.00	384.63
606.00	423.64
607.00	445.48
608.00	444.70
609.00	427.54
610.00	429.10
611.00	411.15
612.00	413.49
613.00	418.96
614.00	451.72
615.00	463.43
616.00	493.85
617.00	473.57
618.00	462.65
619.00	429.88
620.00	436.90
621.00	433.00
622.00	426.76
623.00	425.98
624.00	425.98
625.00	450.94
626.00	435.34
627.00	433.78
628.00	437.68
629.00	460.31
630.00	478.25
631.00	433.00
632.00	416.62
633.00	372.93
634.00	387.75
635.00	400.23
636.00	434.56
637.00	436.12
638.00	422.86
639.00	420.52
640.00	440.80
641.00	429.88
642.00	429.88
643.00	408.03
644.00	399.45
645.00	397.89
646.00	397.11
647.00	436.12
648.00	440.02
649.00	440.80
650.00	429.88
651.00	411.93
652.00	437.68
653.00	440.80
654.00	507.90
655.00	484.49
656.00	470.45
657.00	418.18
658.00	425.98
659.00	426.76
660.00	435.34
661.00	425.98
662.00	434.56
663.00	429.88
664.00	427.54
665.00	411.15
666.00	387.75
667.00	427.54
668.00	469.67
669.00	505.56
670.00	496.19
671.00	479.81
672.00	450.16
673.00	418.96
674.00	402.57
675.00	393.99
676.00	413.49
677.00	416.62
678.00	438.46
679.00	433.00
680.00	438.46
681.00	418.96
682.00	401.79
683.00	403.35
684.00	436.12
685.00	454.84
686.00	430.66
687.00	418.18
688.00	425.98
689.00	442.36
690.00	422.08
691.00	408.81
692.00	414.27
693.00	433.00
694.00	438.46
695.00	429.88
696.00	428.32
697.00	428.32
698.00	447.82
699.00	459.53
700.00	464.21
701.00	462.65
702.00	447.04
703.00	429.10
704.00	419.74
705.00	434.56
706.00	451.72
707.00	440.02
708.00	446.26
709.00	429.10
710.00	423.64
711.00	410.37
712.00	429.10
713.00	461.09
714.00	472.01
715.00	468.89
716.00	470.45
717.00	454.06
718.00	494.63
719.00	466.55
720.00	466.55
721.00	416.62
722.00	432.22
723.00	447.04
724.00	462.65
725.00	474.35
726.00	443.92
727.00	441.58
728.00	438.46
729.00	458.75
730.00	464.21
731.00	456.40
732.00	466.55
733.00	478.25
734.00	497.75
735.00	513.36
736.00	516.48
737.00	518.04
738.00	501.65
739.00	480.59
740.00	460.31
741.00	425.98
742.00	420.52
743.00	425.98
744.00	466.55
745.00	457.18
746.00	441.58
747.00	415.84
748.00	413.49
749.00	424.42
750.00	432.22
751.00	431.44
752.00	395.55
753.00	393.99
754.00	404.13
755.00	411.93
756.00	401.79
757.00	429.88
758.00	460.31
759.00	482.15
760.00	460.31
761.00	457.96
762.00	493.85
763.00	488.39
764.00	470.45
765.00	425.20
766.00	424.42
767.00	429.88
768.00	424.42
769.00	411.15
770.00	399.45
771.00	397.11
772.00	418.18
773.00	436.12
774.00	450.16
775.00	467.33
776.00	465.77
777.00	452.50
778.00	429.10
779.00	456.40
780.00	490.73
781.00	532.08
782.00	523.50
783.00	578.11
784.00	550.03
785.00	543.00
786.00	454.84
787.00	433.00
788.00	406.47
789.00	414.27
790.00	436.90
791.00	436.12
792.00	436.90
793.00	415.84
794.00	424.42
795.00	437.68
796.00	458.74
797.00	461.87
798.00	461.09
799.00	457.96
800.00	461.09
801.00	472.79
802.00	472.79
803.00	467.33
804.00	438.46
805.00	438.46
806.00	460.31
807.00	464.21
808.00	477.47
809.00	461.09
810.00	470.45
811.00	433.00
812.00	446.26
813.00	440.02
814.00	454.06
815.00	457.18
816.00	436.90
817.00	437.68
818.00	411.93
819.00	425.20
820.00	445.48
821.00	491.51
822.00	518.04
823.00	511.02
824.00	493.85
825.00	479.81
826.00	486.83
827.00	438.46
828.00	421.30
829.00	393.99
830.00	450.16
831.00	488.39
832.00	507.12
833.00	494.63
834.00	475.13
835.00	454.84
836.00	443.92
837.00	444.70
838.00	443.92
839.00	432.22
840.00	437.68
841.00	447.82
842.00	457.96
843.00	452.50
844.00	454.84
845.00	453.28
846.00	437.68
847.00	423.64
848.00	433.00
849.00	472.79
850.00	482.15
851.00	475.13
852.00	439.24
853.00	443.92
854.00	403.35
855.00	405.69
856.00	397.89
857.00	449.38
858.00	450.16
859.00	478.25
860.00	479.03
861.00	481.37
862.00	453.28
863.00	433.00
864.00	404.91
865.00	398.67
866.00	431.44
867.00	461.09
868.00	464.21
869.00	436.12
870.00	404.91
871.00	405.69
872.00	391.65
873.00	408.03
874.00	404.91
875.00	414.27
876.00	446.26
877.00	472.79
878.00	498.53
879.00	464.99
880.00	461.87
881.00	463.43
882.00	473.57
883.00	464.99
884.00	461.09
885.00	464.99
886.00	468.11
887.00	464.99
888.00	479.03
889.00	496.19
890.00	486.83
891.00	466.55
892.00	433.00
893.00	425.98
894.00	414.27
895.00	426.76
896.00	439.24
897.00	454.84
898.00	426.76
899.00	417.40
900.00	420.52
901.00	443.14
902.00	476.69
903.00	532.86
904.00	646.77
905.00	738.83
906.00	787.98
907.00	772.38
908.00	702.94
909.00	969.76
910.00	1007.21
911.00	1075.87
912.00	844.15
913.00	858.98
914.00	823.09
915.00	741.95
916.00	622.58
917.00	535.98
918.00	458.75
919.00	408.03
920.00	421.30
921.00	461.87
922.00	471.23
923.00	436.90
924.00	390.09
925.00	407.25
926.00	420.52
927.00	457.18
928.00	457.18
929.00	469.67
930.00	437.68
931.00	434.56
932.00	442.36
933.00	462.65
934.00	445.48
935.00	436.12
936.00	436.12
937.00	452.50
938.00	435.34
939.00	435.34
940.00	421.30
941.00	432.22
942.00	435.34
943.00	589.81
944.00	1032.96
945.00	1884.13
946.00	2869.50
947.00	3588.82
948.00	3627.83
949.00	3103.55
950.00	2296.07
951.00	1558.80
952.00	1044.66
953.00	704.50
954.00	556.27
955.00	496.97
956.00	495.41
957.00	508.68
958.00	489.95
959.00	465.77
960.00	429.10
961.00	418.18
962.00	441.58
963.00	462.65
964.00	448.60
965.00	447.04
966.00	467.33
967.00	470.45
968.00	478.25
969.00	443.92
970.00	439.24
971.00	436.12
972.00	442.36
973.00	440.02
974.00	431.44
975.00	422.08
976.00	440.80
977.00	424.42
978.00	441.58
979.00	443.14
980.00	475.13
981.00	477.47
982.00	481.37
983.00	445.48
984.00	412.71
985.00	397.89
986.00	411.15
987.00	409.59
988.00	418.96
989.00	429.88
990.00	464.21
991.00	482.15
992.00	457.18
993.00	437.68
994.00	423.64
995.00	425.20
996.00	418.18
997.00	391.65
998.00	380.73
999.00	372.93
1000.00	391.65
1001.00	417.40
1002.00	439.24
1003.00	443.92
1004.00	436.12
1005.00	448.60
1006.00	452.50
1007.00	474.35
1008.00	453.28
1009.00	463.43
1010.00	461.09
1011.00	473.57
1012.00	461.09
1013.00	443.14
1014.00	455.62
1015.00	437.68
1016.00	445.48
1017.00	413.49
1018.00	415.06
1019.00	395.55
1020.00	391.65
1021.00	376.83
1022.00	358.88
1023.00	396.33
1024.00	438.46
1025.00	468.89
1026.00	468.89
1027.00	462.65
1028.00	482.15
1029.00	445.48
1030.00	436.12
1031.00	442.36
1032.00	488.39
1033.00	504.00
1034.00	486.05
1035.00	457.96
1036.00	461.87
1037.00	463.43
1038.00	468.11
1039.00	437.68
1040.00	449.38
1041.00	454.06
1042.00	488.39
1043.00	504.00
1044.00	511.80
1045.00	565.63
1046.00	553.15
1047.00	537.54
1048.00	475.13
1049.00	450.16
1050.00	452.50
1051.00	456.40
1052.00	454.84
1053.00	469.67
1054.00	436.12
1055.00	445.48
1056.00	431.44
1057.00	440.02
1058.00	443.92
1059.00	447.82
1060.00	459.53
1061.00	454.84
1062.00	429.10
1063.00	413.49
1064.00	406.47
1065.00	418.18
1066.00	441.58
1067.00	467.33
1068.00	475.13
1069.00	465.77
1070.00	436.12
1071.00	436.90
1072.00	426.76
1073.00	450.16
1074.00	443.14
1075.00	461.09
1076.00	436.12
1077.00	455.62
1078.00	491.51
1079.00	539.10
1080.00	521.16
1081.00	464.21
1082.00	417.40
1083.00	403.35
1084.00	415.84
1085.00	429.88
1086.00	438.46
1087.00	441.58
1088.00	441.58
1089.00	457.96
1090.00	461.09
1091.00	477.47
1092.00	478.25
1093.00	475.13
1094.00	475.91
1095.00	501.65
1096.00	486.05
1097.00	469.67
1098.00	470.45
1099.00	532.08
1100.00	557.83
1101.00	559.39
1102.00	531.30
1103.00	528.96
1104.00	517.26
1105.00	492.29
1106.00	465.77
1107.00	453.28
1108.00	469.67
1109.00	474.35
1110.00	470.45
1111.00	461.09
1112.00	430.66
1113.00	443.14
1114.00	425.98
1115.00	447.82
1116.00	418.96
1117.00	424.42
1118.00	427.54
1119.00	449.38
1120.00	482.15
1121.00	497.75
1122.00	543.00
1123.00	544.56
1124.00	528.96
1125.00	475.13
1126.00	451.72
1127.00	440.80
1128.00	436.90
1129.00	422.08
1130.00	437.68
1131.00	432.22
1132.00	447.82
1133.00	451.72
1134.00	474.35
1135.00	480.59
1136.00	490.73
1137.00	506.34
1138.00	526.62
1139.00	565.63
1140.00	553.15
1141.00	556.27
1142.00	535.20
1143.00	509.46
1144.00	472.79
1145.00	450.94
1146.00	456.40
1147.00	470.45
1148.00	488.39
1149.00	489.95
1150.00	513.36
1151.00	499.31
1152.00	516.48
1153.00	489.17
1154.00	508.68
1155.00	581.23
1156.00	654.57
1157.00	713.86
1158.00	713.86
1159.00	703.72
1160.00	651.45
1161.00	584.35
1162.00	544.56
1163.00	574.21
1164.00	747.41
1165.00	1036.08
1166.00	1394.96
1167.00	1613.41
1168.00	1676.60
1169.00	1515.11
1170.00	1289.64
1171.00	1043.10
1172.00	858.20
1173.00	726.35
1174.00	645.21
1175.00	610.10
1176.00	616.34
1177.00	625.70
1178.00	602.30
1179.00	599.18
1180.00	573.43
1181.00	595.28
1182.00	600.74
1183.00	624.92
1184.00	640.53
1185.00	646.77
1186.00	655.35
1187.00	652.23
1188.00	652.23
1189.00	674.85
1190.00	737.27
1191.00	805.92
1192.00	878.48
1193.00	868.34
1194.00	851.17
1195.00	807.48
1196.00	812.17
1197.00	809.83
1198.00	867.56
1199.00	1028.28
1200.00	1220.20
1201.00	1416.80
1202.00	1507.30
1203.00	1498.72
1204.00	1387.94
1205.00	1259.99
1206.00	1178.07
1207.00	1171.05
1208.00	1174.17
1209.00	1182.75
1210.00	1174.95
1211.00	1222.54
1212.00	1341.91
1213.00	1477.66
1214.00	1686.75
1215.00	1987.89
1216.00	2498.91
1217.00	5566.57
1218.00	20448.48
1219.00	41248.04
1220.00	59372.37
1221.00	65535.00
1222.00	65535.00
1223.00	65535.00
1224.00	65535.00
1225.00	65267.40
1226.00	56030.08
1227.00	40297.00
1228.00	21674.14
1229.00	10613.55
1230.00	5373.87
1231.00	3084.83
1232.00	2137.69
1233.00	1774.91
1234.00	1590.78
1235.00	1538.51
1236.00	2022.22
1237.00	3689.46
1238.00	6927.21
1239.00	11252.52
1240.00	14867.86
1241.00	15974.94
1242.00	14300.67
1243.00	11046.55
1244.00	7567.73
1245.00	4765.33
1246.00	2787.58
1247.00	1728.10
1248.00	1182.75
1249.00	966.64
1250.00	932.31
1251.00	962.74
1252.00	1039.20
1253.00	1135.16
1254.00	1233.46
1255.00	1235.80
1256.00	1157.78
1257.00	1064.94
1258.00	1004.09
1259.00	978.34
1260.00	926.85
1261.00	875.36
1262.00	861.32
1263.00	872.24
1264.00	875.36
1265.00	846.49
1266.00	822.31
1267.00	796.56
1268.00	796.56
1269.00	780.18
1270.00	775.50
1271.00	752.87
1272.00	763.01
1273.00	792.66
1274.00	858.98
1275.00	1217.08
1276.00	2900.70
1277.00	7055.94
1278.00	14232.02
1279.00	22479.29
1280.00	27992.03
1281.00	28300.98
1282.00	24000.63
1283.00	17624.23
1284.00	11509.97
1285.00	6668.97
1286.00	3670.74
1287.00	2067.47
1288.00	1314.60
1289.00	1000.19
1290.00	876.92
1291.00	853.52
1292.00	844.15
1293.00	896.43
1294.00	919.05
1295.00	1122.68
1296.00	1706.25
1297.00	2902.26
1298.00	4614.76
1299.00	6090.07
1300.00	6710.32
1301.00	6171.99
1302.00	4980.66
1303.00	3577.90
1304.00	2415.43
1305.00	1580.64
1306.00	1167.93
1307.00	962.74
1308.00	869.12
1309.00	786.42
1310.00	728.69
1311.00	698.26
1312.00	677.98
1313.00	643.65
1314.00	623.36
1315.00	589.03
1316.00	595.28
1317.00	610.10
1318.00	622.58
1319.00	610.10
1320.00	587.47
1321.00	557.05
1322.00	566.41
1323.00	546.12
1324.00	562.51
1325.00	544.56
1326.00	571.09
1327.00	571.09
1328.00	591.38
1329.00	629.60
1330.00	944.80
1331.00	1849.80
1332.00	3459.31
1333.00	5402.74
1334.00	6864.79
1335.00	7210.41
1336.00	6500.45
1337.00	5131.23
1338.00	3638.75
1339.00	2362.38
1340.00	1465.96
1341.00	1004.87
1342.00	793.44
1343.00	700.60
1344.00	657.69
1345.00	640.53
1346.00	617.12
1347.00	599.18
1348.00	575.77
1349.00	603.86
1350.00	661.59
1351.00	700.60
1352.00	711.52
1353.00	708.40
1354.00	694.36
1355.00	689.68
1356.00	722.45
1357.00	831.67
1358.00	1401.20
1359.00	3370.37
1360.00	7484.25
1361.00	13852.85
1362.00	19994.42
1363.00	23353.87
1364.00	22382.54
1365.00	18529.24
1366.00	13365.24
1367.00	8663.10
1368.00	4973.64
1369.00	2899.92
1370.00	1838.10
1371.00	1439.43
1372.00	2099.46
1373.00	5284.93
1374.00	12359.59
1375.00	23415.50
1376.00	34456.59
1377.00	41013.99
1378.00	39977.13
1379.00	33592.15
1380.00	24369.66
1381.00	15817.34
1382.00	8920.56
1383.00	4844.13
1384.00	2636.22
1385.00	1621.21
1386.00	1158.57
1387.00	941.68
1388.00	859.76
1389.00	841.81
1390.00	845.71
1391.00	843.37
1392.00	797.34
1393.00	805.14
1394.00	907.35
1395.00	1105.51
1396.00	1405.10
1397.00	1664.90
1398.00	1843.56
1399.00	1855.26
1400.00	1768.66
1401.00	1739.02
1402.00	2218.05
1403.00	5551.75
1404.00	14407.56
1405.00	29733.39
1406.00	45544.48
1407.00	56258.68
1408.00	58470.48
1409.00	54351.92
1410.00	44503.73
1411.00	31407.65
1412.00	18679.04
1413.00	9887.98
1414.00	5248.26
1415.00	3043.48
1416.00	2476.29
1417.00	3596.62
1418.00	6560.52
1419.00	10933.42
1420.00	15057.45
1421.00	16999.31
1422.00	16054.51
1423.00	13188.92
1424.00	9550.17
1425.00	6271.86
1426.00	3660.60
1427.00	2192.30
1428.00	1423.83
1429.00	1064.16
1430.00	908.91
1431.00	841.81
1432.00	828.55
1433.00	791.88
1434.00	780.18
1435.00	734.15
1436.00	695.14
1437.00	663.15
1438.00	649.11
1439.00	615.56
1440.00	595.28
1441.00	596.06
1442.00	599.96
1443.00	585.91
1444.00	559.39
1445.00	609.32
1446.00	637.41
1447.00	663.93
1448.00	660.03
1449.00	659.25
1450.00	713.86
1451.00	940.12
1452.00	1799.09
1453.00	3563.86
1454.00	6168.87
1455.00	8623.31
1456.00	9931.67
1457.00	9649.25
1458.00	8296.42
1459.00	6328.03
1460.00	4386.16
1461.00	2668.21
1462.00	1618.87
1463.00	1079.77
1464.00	867.56
1465.00	767.70
1466.00	687.34
1467.00	658.47
1468.00	617.12
1469.00	607.76
1470.00	606.20
1471.00	646.77
1472.00	647.55
1473.00	631.16
1474.00	623.36
1475.00	612.44
1476.00	623.36
1477.00	589.03
1478.00	599.96
1479.00	617.12
1480.00	674.07
1481.00	723.23
1482.00	800.46
1483.00	1208.50
1484.00	3041.92
1485.00	7503.76
1486.00	15456.12
1487.00	25000.82
1488.00	32530.33
1489.00	34654.75
1490.00	31286.72
1491.00	24593.57
1492.00	17061.73
1493.00	10435.67
1494.00	5760.06
1495.00	3107.45
1496.00	1856.82
1497.00	1203.82
1498.00	921.39
1499.00	782.52
1500.00	713.86
1501.00	669.39
1502.00	636.63
1503.00	629.60
1504.00	609.32
1505.00	603.08
1506.00	621.80
1507.00	649.11
1508.00	689.68
1509.00	941.68
1510.00	1739.02
1511.00	3192.49
1512.00	5367.63
1513.00	7385.95
1514.00	8638.14
1515.00	8330.75
1516.00	7086.36
1517.00	5306.77
1518.00	3682.44
1519.00	2370.96
1520.00	1547.87
1521.00	1079.77
1522.00	850.39
1523.00	739.61
1524.00	705.28
1525.00	690.46
1526.00	714.64
1527.00	820.75
1528.00	1052.46
1529.00	2003.50
1530.00	4540.64
1531.00	9151.49
1532.00	15335.19
1533.00	20702.82
1534.00	22957.53
1535.00	21393.28
1536.00	17490.04
1537.00	12787.13
1538.00	8427.49
1539.00	4890.16
1540.00	2751.69
1541.00	1612.63
1542.00	1102.39
1543.00	888.62
1544.00	773.16
1545.00	752.87
1546.00	738.05
1547.00	766.14
1548.00	745.07
1549.00	713.08
1550.00	677.98
1551.00	660.81
1552.00	662.37
1553.00	706.84
1554.00	717.76
1555.00	748.97
1556.00	768.48
1557.00	826.99
1558.00	837.13
1559.00	858.98
1560.00	943.24
1561.00	1648.52
1562.00	4477.44
1563.00	10808.59
1564.00	21286.39
1565.00	32963.32
1566.00	41295.63
1567.00	42861.45
1568.00	38285.70
1569.00	30244.40
1570.00	21251.28
1571.00	13239.63
1572.00	7527.16
1573.00	4393.97
1574.00	3826.78
1575.00	7440.56
1576.00	16862.78
1577.00	32199.53
1578.00	46840.36
1579.00	56379.60
1580.00	57719.17
1581.00	53713.73
1582.00	44553.66
1583.00	32297.05
1584.00	19918.74
1585.00	10881.15
1586.00	5763.18
1587.00	3184.69
1588.00	1938.74
1589.00	1317.72
1590.00	1043.10
1591.00	894.86
1592.00	830.11
1593.00	770.04
1594.00	755.21
1595.00	702.16
1596.00	703.72
1597.00	673.29
1598.00	655.35
1599.00	625.70
1600.00	599.18
1601.00	593.72
1602.00	573.43
1603.00	568.75
1604.00	562.51
1605.00	588.25
1606.00	599.18
1607.00	621.80
1608.00	595.28
1609.00	578.11
1610.00	550.81
1611.00	557.83
1612.00	559.39
1613.00	572.65
1614.00	568.75
1615.00	550.81
1616.00	550.03
1617.00	530.52
1618.00	574.99
1619.00	570.31
1620.00	602.30
1621.00	571.09
1622.00	583.57
1623.00	560.17
1624.00	580.45
1625.00	552.37
1626.00	559.39
1627.00	558.61
1628.00	582.79
1629.00	592.94
1630.00	581.23
1631.00	582.01
1632.00	582.79
1633.00	592.16
1634.00	587.47
1635.00	617.12
1636.00	612.44
1637.00	613.22
1638.00	593.72
1639.00	638.97
1640.00	655.35
1641.00	675.63
1642.00	651.45
1643.00	666.27
1644.00	738.83
1645.00	1266.23
1646.00	3353.21
1647.00	7894.63
1648.00	15643.36
1649.00	24649.74
1650.00	31808.66
1651.00	33940.11
1652.00	31267.22
1653.00	25445.52
1654.00	18600.24
1655.00	12008.51
1656.00	6970.12
1657.00	3869.69
1658.00	2248.47
1659.00	1429.29
1660.00	997.07
1661.00	811.39
1662.00	741.17
1663.00	858.98
1664.00	1414.46
1665.00	2791.48
1666.00	5194.43
1667.00	8154.43
1668.00	10798.45
1669.00	11945.31
1670.00	11311.03
1671.00	9492.43
1672.00	7148.00
1673.00	4983.78
1674.00	3091.85
1675.00	1873.99
1676.00	1182.75
1677.00	837.13
1678.00	673.29
1679.00	604.64
1680.00	585.91
1681.00	567.19
1682.00	543.00
1683.00	512.58
1684.00	524.28
1685.00	532.86
1686.00	518.04
1687.00	490.73
1688.00	464.99
1689.00	492.29
1690.00	514.14
1691.00	496.97
1692.00	486.05
1693.00	474.35
1694.00	504.00
1695.00	489.95
1696.00	489.95
1697.00	494.63
1698.00	506.34
1699.00	529.74
1700.00	517.26
1701.00	540.66
1702.00	543.78
1703.00	571.09
1704.00	568.75
1705.00	582.01
1706.00	570.31
1707.00	546.91
1708.00	579.67
1709.00	877.70
1710.00	1904.42
1711.00	4045.23
1712.00	7499.86
1713.00	11828.29
1714.00	15374.20
1715.00	16794.12
1716.00	15721.38
1717.00	13116.36
1718.00	9898.91
1719.00	6748.54
1720.00	4199.70
1721.00	2499.69
1722.00	1480.00
1723.00	947.92
1724.00	713.08
1725.00	617.12
1726.00	567.97
1727.00	525.06
1728.00	507.90
1729.00	524.28
1730.00	535.98
1731.00	539.10
1732.00	487.61
1733.00	485.27
1734.00	471.23
1735.00	475.91
1736.00	467.33
1737.00	492.29
1738.00	521.16
1739.00	522.72
1740.00	523.50
1741.00	504.78
1742.00	498.53
1743.00	488.39
1744.00	468.11
1745.00	475.13
1746.00	461.09
1747.00	491.51
1748.00	510.24
1749.00	509.46
1750.00	500.09
1751.00	523.50
1752.00	551.59
1753.00	585.91
1754.00	575.77
1755.00	589.03
1756.00	574.21
1757.00	553.93
1758.00	551.59
1759.00	547.69
1760.00	580.45
1761.00	592.94
1762.00	674.07
1763.00	716.98
1764.00	866.78
1765.00	1515.11
1766.00	3684.78
1767.00	7972.64
1768.00	14721.19
1769.00	22247.57
1770.00	28103.59
1771.00	29722.46
1772.00	27410.79
1773.00	22392.69
1774.00	16489.07
1775.00	10790.65
1776.00	6410.73
1777.00	3692.59
1778.00	2182.94
1779.00	1391.84
1780.00	1002.53
1781.00	772.38
1782.00	684.22
1783.00	662.37
1784.00	652.23
1785.00	619.46
1786.00	562.51
1787.00	572.65
1788.00	579.67
1789.00	584.35
1790.00	603.86
1791.00	615.56
1792.00	767.70
1793.00	1515.11
1794.00	3397.68
1795.00	6713.44
1796.00	11221.31
1797.00	15530.23
1798.00	18155.54
1799.00	17964.39
1800.00	15753.37
1801.00	12265.97
1802.00	8769.21
1803.00	5636.01
1804.00	3424.20
1805.00	2051.09
1806.00	1292.76
1807.00	939.34
1808.00	744.29
1809.00	650.67
1810.00	603.08
1811.00	564.85
1812.00	572.65
1813.00	576.55
1814.00	581.23
1815.00	529.74
1816.00	507.12
1817.00	489.95
1818.00	506.34
1819.00	519.60
1820.00	546.91
1821.00	588.25
1822.00	638.97
1823.00	663.15
1824.00	670.95
1825.00	674.85
1826.00	644.43
1827.00	609.32
1828.00	542.22
1829.00	504.00
1830.00	486.83
1831.00	493.07
1832.00	509.46
1833.00	494.63
1834.00	486.05
1835.00	482.93
1836.00	499.31
1837.00	480.59
1838.00	490.73
1839.00	440.80
1840.00	436.12
1841.00	408.81
1842.00	455.62
1843.00	482.93
1844.00	482.15
1845.00	463.43
1846.00	434.56
1847.00	431.44
1848.00	433.78
1849.00	453.28
1850.00	450.94
1851.00	449.38
1852.00	432.22
1853.00	468.89
1854.00	463.43
1855.00	478.25
1856.00	450.94
1857.00	464.99
1858.00	461.09
1859.00	456.40
1860.00	443.92
1861.00	448.60
1862.00	447.82
1863.00	450.16
1864.00	434.56
1865.00	433.78
1866.00	431.44
1867.00	399.45
1868.00	425.98
1869.00	414.27
1870.00	465.77
1871.00	448.60
1872.00	474.35
1873.00	469.67
1874.00	443.14
1875.00	401.79
1876.00	378.39
1877.00	415.84
1878.00	466.55
1879.00	480.59
1880.00	488.39
1881.00	471.23
1882.00	483.71
1883.00	473.57
1884.00	459.53
1885.00	458.75
1886.00	462.65
1887.00	465.77
1888.00	470.45
1889.00	460.31
1890.00	443.92
1891.00	418.18
1892.00	416.62
1893.00	424.42
1894.00	437.68
1895.00	415.84
1896.00	443.92
1897.00	422.86
1898.00	445.48
1899.00	440.80
1900.00	484.49
1901.00	451.72
1902.00	456.40
1903.00	443.14
1904.00	472.01
1905.00	481.37
1906.00	505.56
1907.00	558.61
1908.00	621.02
1909.00	641.31
1910.00	609.32
1911.00	549.25
1912.00	548.47
1913.00	551.59
1914.00	525.84
1915.00	504.00
1916.00	480.59
1917.00	464.21
1918.00	423.64
1919.00	411.15
1920.00	464.21
1921.00	486.05
1922.00	508.68
1923.00	483.71
1924.00	480.59
1925.00	489.17
1926.00	489.95
1927.00	489.95
1928.00	457.96
1929.00	443.14
1930.00	454.06
1931.00	452.50
1932.00	465.77
1933.00	471.23
1934.00	522.72
1935.00	520.38
1936.00	490.73
1937.00	472.01
1938.00	474.35
1939.00	465.77
1940.00	486.83
1941.00	489.95
1942.00	498.53
1943.00	462.65
1944.00	495.41
1945.00	546.91
1946.00	632.72
1947.00	954.94
1948.00	2001.16
1949.00	3893.09
1950.00	6854.65
1951.00	10258.57
1952.00	13087.50
1953.00	14127.47
1954.00	13202.96
1955.00	11325.07
1956.00	8996.24
1957.00	6786.77
1958.00	4717.74
1959.00	3159.72
1960.00	2074.49
1961.00	1375.45
1962.00	968.98
1963.00	741.95
1964.00	628.04
1965.00	582.01
1966.00	557.05
1967.00	522.72
1968.00	523.50
1969.00	538.32
1970.00	532.08
1971.00	504.00
1972.00	486.83
1973.00	521.16
1974.00	567.19
1975.00	636.63
1976.00	734.15
1977.00	900.33
1978.00	1066.50
1979.00	1218.64
1980.00	1233.46
1981.00	1205.38
1982.00	1093.03
1983.00	1000.97
1984.00	871.46
1985.00	743.51
1986.00	642.87
1987.00	577.33
1988.00	551.59
1989.00	505.56
1990.00	480.59
1991.00	456.40
1992.00	461.09
1993.00	457.18
1994.00	479.81
1995.00	504.00
1996.00	494.63
1997.00	476.69
1998.00	481.37
1999.00	496.19
2000.00	504.78
2001.00	472.01
2002.00	518.04
2003.00	529.74
2004.00	558.61
2005.00	531.30
2006.00	511.80
2007.00	506.34
2008.00	505.56
2009.00	531.30
2010.00	526.62
2011.00	497.75
2012.00	490.73
2013.00	525.06
2014.00	536.76
2015.00	518.82
2016.00	497.75
2017.00	538.32
2018.00	579.67
2019.00	641.31
2020.00	728.69
2021.00	929.19
2022.00	1172.61
2023.00	1430.07
2024.00	1886.47
2025.00	3436.69
2026.00	6568.32
2027.00	11548.98
2028.00	18029.93
2029.00	24279.94
2030.00	28525.67
2031.00	29022.64
2032.00	26930.20
2033.00	23085.48
2034.00	18395.83
2035.00	13543.12
2036.00	9230.29
2037.00	6068.23
2038.00	3813.51
2039.00	2359.26
2040.00	1540.07
2041.00	1076.65
2042.00	873.02
2043.00	781.74
2044.00	738.83
2045.00	692.02
2046.00	662.37
2047.00	645.99
>>>>>End Processed Spectral Data<<<<<
