SpectraSuite Data File
++++++++++++++++++++++++++++++++++++
Date: Thu Nov 16 13:55:20 EST 2017
User: cheriyan
Dark Spectrum Present: No
Reference Spectrum Present: No
Number of Sampled Component Spectra: 1
Spectrometers: USB2+H05261
Integration Time (usec): 100000 (USB2+H05261)
Spectra Averaged: 1 (USB2+H05261)
Boxcar Smoothing: 1 (USB2+H05261)
Correct for Electrical Dark: No (USB2+H05261)
Strobe/Lamp Enabled: No (USB2+H05261)
Correct for Detector Non-linearity: No (USB2+H05261)
Correct for Stray Light: No (USB2+H05261)
Number of Pixels in Processed Spectrum: 2048
>>>>>Begin Processed Spectral Data<<<<<
0.00	339.38
1.00	339.38
2.00	301.93
3.00	264.48
4.00	246.54
5.00	244.98
6.00	239.51
7.00	227.81
8.00	253.56
9.00	265.26
10.00	262.14
11.00	233.27
12.00	230.93
13.00	234.05
14.00	234.05
15.00	258.24
16.00	255.12
17.00	269.94
18.00	220.01
19.00	226.25
20.00	220.01
21.00	255.12
22.00	283.98
23.00	298.81
24.00	305.05
25.00	287.11
26.00	317.53
27.00	344.84
28.00	357.32
29.00	332.36
30.00	348.74
31.00	358.88
32.00	372.93
33.00	361.22
34.00	390.87
35.00	418.18
36.00	439.24
37.00	401.01
38.00	383.85
39.00	386.19
40.00	430.66
41.00	454.06
42.00	452.50
43.00	421.30
44.00	414.27
45.00	411.15
46.00	426.76
47.00	435.34
48.00	404.13
49.00	376.83
50.00	379.17
51.00	394.77
52.00	437.68
53.00	415.06
54.00	417.40
55.00	401.01
56.00	397.89
57.00	413.49
58.00	415.84
59.00	433.78
60.00	406.47
61.00	393.99
62.00	382.29
63.00	411.15
64.00	404.13
65.00	408.03
66.00	390.09
67.00	398.67
68.00	404.91
69.00	385.41
70.00	365.12
71.00	349.52
72.00	353.42
73.00	395.55
74.00	399.45
75.00	414.27
76.00	388.53
77.00	397.11
78.00	396.33
79.00	411.15
80.00	405.69
81.00	392.43
82.00	379.17
83.00	380.73
84.00	378.39
85.00	397.11
86.00	399.45
87.00	417.40
88.00	418.96
89.00	426.76
90.00	436.12
91.00	419.74
92.00	426.76
93.00	426.76
94.00	447.82
95.00	409.59
96.00	418.18
97.00	408.81
98.00	427.54
99.00	402.57
100.00	401.79
101.00	385.41
102.00	404.13
103.00	412.71
104.00	422.86
105.00	418.96
106.00	401.01
107.00	404.13
108.00	403.35
109.00	407.25
110.00	416.62
111.00	417.40
112.00	422.86
113.00	406.47
114.00	394.77
115.00	390.09
116.00	390.87
117.00	399.45
118.00	391.65
119.00	412.71
120.00	434.56
121.00	445.48
122.00	451.72
123.00	454.06
124.00	440.02
125.00	402.57
126.00	370.58
127.00	372.93
128.00	370.58
129.00	387.75
130.00	391.65
131.00	419.74
132.00	424.42
133.00	430.66
134.00	436.12
135.00	405.69
136.00	394.77
137.00	393.21
138.00	385.41
139.00	393.21
140.00	391.65
141.00	409.59
142.00	408.81
143.00	422.86
144.00	438.46
145.00	469.67
146.00	465.77
147.00	477.47
148.00	471.23
149.00	461.87
150.00	437.68
151.00	429.10
152.00	432.22
153.00	435.34
154.00	433.78
155.00	422.08
156.00	419.74
157.00	425.98
158.00	429.88
159.00	416.62
160.00	387.75
161.00	383.07
162.00	408.03
163.00	403.35
164.00	396.33
165.00	370.58
166.00	374.49
167.00	376.05
168.00	377.61
169.00	368.24
170.00	358.88
171.00	382.29
172.00	383.07
173.00	370.58
174.00	337.04
175.00	354.20
176.00	415.06
177.00	435.34
178.00	464.21
179.00	438.46
180.00	433.78
181.00	423.64
182.00	431.44
183.00	445.48
184.00	436.12
185.00	418.96
186.00	433.78
187.00	401.01
188.00	384.63
189.00	366.68
190.00	395.55
191.00	410.37
192.00	434.56
193.00	443.14
194.00	504.78
195.00	520.38
196.00	549.25
197.00	529.74
198.00	500.87
199.00	474.35
200.00	473.57
201.00	468.89
202.00	444.70
203.00	397.11
204.00	379.95
205.00	383.85
206.00	393.21
207.00	376.05
208.00	364.34
209.00	370.58
210.00	396.33
211.00	408.81
212.00	407.25
213.00	403.35
214.00	402.57
215.00	416.62
216.00	425.98
217.00	434.56
218.00	409.59
219.00	407.25
220.00	389.31
221.00	401.79
222.00	414.27
223.00	459.53
224.00	429.88
225.00	419.74
226.00	388.53
227.00	408.81
228.00	395.55
229.00	376.05
230.00	390.87
231.00	393.99
232.00	416.62
233.00	416.62
234.00	415.06
235.00	411.93
236.00	373.71
237.00	372.93
238.00	366.68
239.00	409.59
240.00	399.45
241.00	411.15
242.00	428.32
243.00	445.48
244.00	461.09
245.00	431.44
246.00	429.10
247.00	394.77
248.00	378.39
249.00	376.05
250.00	397.11
251.00	408.81
252.00	405.69
253.00	390.09
254.00	402.57
255.00	408.03
256.00	418.96
257.00	416.62
258.00	451.72
259.00	452.50
260.00	451.72
261.00	410.37
262.00	425.98
263.00	438.46
264.00	478.25
265.00	472.79
266.00	475.91
267.00	495.41
268.00	515.70
269.00	521.94
270.00	515.70
271.00	565.63
272.00	639.75
273.00	641.31
274.00	611.66
275.00	574.99
276.00	586.69
277.00	574.99
278.00	536.76
279.00	518.82
280.00	496.19
281.00	475.13
282.00	462.65
283.00	445.48
284.00	432.22
285.00	398.67
286.00	414.27
287.00	437.68
288.00	435.34
289.00	429.10
290.00	429.88
291.00	442.36
292.00	427.54
293.00	408.03
294.00	374.49
295.00	375.27
296.00	380.73
297.00	418.96
298.00	415.84
299.00	410.37
300.00	408.81
301.00	402.57
302.00	394.77
303.00	387.75
304.00	379.17
305.00	411.15
306.00	442.36
307.00	538.32
308.00	603.86
309.00	655.35
310.00	632.72
311.00	608.54
312.00	562.51
313.00	502.44
314.00	419.74
315.00	383.85
316.00	406.47
317.00	438.46
318.00	439.24
319.00	447.04
320.00	461.09
321.00	474.35
322.00	442.36
323.00	417.40
324.00	390.87
325.00	396.33
326.00	377.61
327.00	403.35
328.00	396.33
329.00	429.10
330.00	434.56
331.00	481.37
332.00	467.33
333.00	455.62
334.00	407.25
335.00	424.42
336.00	422.08
337.00	444.70
338.00	437.68
339.00	432.22
340.00	422.08
341.00	438.46
342.00	447.82
343.00	441.58
344.00	444.70
345.00	474.35
346.00	557.05
347.00	638.19
348.00	732.59
349.00	737.27
350.00	708.40
351.00	614.00
352.00	570.31
353.00	511.80
354.00	518.82
355.00	501.65
356.00	505.56
357.00	472.01
358.00	461.09
359.00	440.02
360.00	459.53
361.00	453.28
362.00	472.79
363.00	466.55
364.00	486.05
365.00	470.45
366.00	436.12
367.00	407.25
368.00	417.40
369.00	439.24
370.00	444.70
371.00	425.98
372.00	433.00
373.00	431.44
374.00	438.46
375.00	417.40
376.00	419.74
377.00	411.15
378.00	401.79
379.00	403.35
380.00	401.79
381.00	404.13
382.00	418.96
383.00	438.46
384.00	450.94
385.00	429.88
386.00	407.25
387.00	406.47
388.00	398.67
389.00	388.53
390.00	373.71
391.00	383.85
392.00	405.69
393.00	425.20
394.00	435.34
395.00	438.46
396.00	429.88
397.00	436.12
398.00	414.27
399.00	415.06
400.00	390.09
401.00	399.45
402.00	397.89
403.00	405.69
404.00	411.93
405.00	422.86
406.00	440.02
407.00	436.90
408.00	434.56
409.00	425.98
410.00	429.88
411.00	401.79
412.00	390.87
413.00	400.23
414.00	411.93
415.00	401.79
416.00	410.37
417.00	420.52
418.00	440.02
419.00	425.98
420.00	419.74
421.00	412.71
422.00	397.11
423.00	403.35
424.00	411.93
425.00	427.54
426.00	413.49
427.00	435.34
428.00	428.32
429.00	461.87
430.00	450.16
431.00	452.50
432.00	429.10
433.00	401.79
434.00	382.29
435.00	391.65
436.00	402.57
437.00	409.59
438.00	400.23
439.00	387.75
440.00	404.91
441.00	422.08
442.00	456.40
443.00	443.92
444.00	438.46
445.00	425.98
446.00	445.48
447.00	442.36
448.00	462.65
449.00	448.60
450.00	468.89
451.00	471.23
452.00	507.90
453.00	496.97
454.00	464.99
455.00	457.96
456.00	464.99
457.00	465.77
458.00	450.94
459.00	429.88
460.00	439.24
461.00	429.88
462.00	421.30
463.00	425.20
464.00	437.68
465.00	454.84
466.00	439.24
467.00	408.03
468.00	409.59
469.00	411.93
470.00	389.31
471.00	379.17
472.00	366.68
473.00	383.85
474.00	373.71
475.00	395.55
476.00	403.35
477.00	427.54
478.00	413.49
479.00	449.38
480.00	451.72
481.00	452.50
482.00	415.84
483.00	408.81
484.00	422.86
485.00	401.01
486.00	403.35
487.00	392.43
488.00	424.42
489.00	411.15
490.00	415.06
491.00	421.30
492.00	456.40
493.00	448.60
494.00	454.84
495.00	416.62
496.00	421.30
497.00	408.81
498.00	402.57
499.00	372.93
500.00	399.45
501.00	418.18
502.00	451.72
503.00	427.54
504.00	420.52
505.00	391.65
506.00	422.86
507.00	426.76
508.00	451.72
509.00	435.34
510.00	435.34
511.00	424.42
512.00	413.49
513.00	438.46
514.00	461.87
515.00	447.04
516.00	413.49
517.00	412.71
518.00	443.14
519.00	434.56
520.00	423.64
521.00	396.33
522.00	385.41
523.00	383.07
524.00	370.58
525.00	392.43
526.00	390.09
527.00	399.45
528.00	411.15
529.00	423.64
530.00	434.56
531.00	442.36
532.00	448.60
533.00	454.84
534.00	451.72
535.00	431.44
536.00	415.06
537.00	397.89
538.00	409.59
539.00	442.36
540.00	440.80
541.00	449.38
542.00	415.84
543.00	440.80
544.00	435.34
545.00	443.92
546.00	428.32
547.00	422.08
548.00	436.12
549.00	435.34
550.00	422.86
551.00	443.14
552.00	463.43
553.00	485.27
554.00	447.82
555.00	433.78
556.00	420.52
557.00	449.38
558.00	433.00
559.00	444.70
560.00	404.91
561.00	401.79
562.00	389.31
563.00	398.67
564.00	413.49
565.00	433.78
566.00	455.62
567.00	449.38
568.00	454.06
569.00	423.64
570.00	408.81
571.00	380.73
572.00	410.37
573.00	430.66
574.00	468.89
575.00	473.57
576.00	465.77
577.00	422.86
578.00	415.06
579.00	430.66
580.00	436.90
581.00	429.88
582.00	421.30
583.00	435.34
584.00	430.66
585.00	450.16
586.00	435.34
587.00	417.40
588.00	400.23
589.00	397.89
590.00	407.25
591.00	398.67
592.00	400.23
593.00	383.85
594.00	409.59
595.00	427.54
596.00	427.54
597.00	436.12
598.00	410.37
599.00	430.66
600.00	415.84
601.00	436.12
602.00	432.22
603.00	416.62
604.00	424.42
605.00	448.60
606.00	454.06
607.00	415.06
608.00	386.97
609.00	354.20
610.00	394.77
611.00	397.89
612.00	414.27
613.00	388.53
614.00	390.09
615.00	393.99
616.00	393.99
617.00	395.55
618.00	386.19
619.00	386.97
620.00	386.19
621.00	392.43
622.00	410.37
623.00	421.30
624.00	445.48
625.00	459.53
626.00	457.18
627.00	464.21
628.00	463.43
629.00	479.03
630.00	431.44
631.00	401.01
632.00	390.87
633.00	438.46
634.00	434.56
635.00	428.32
636.00	425.20
637.00	436.12
638.00	443.14
639.00	446.26
640.00	466.55
641.00	475.13
642.00	454.84
643.00	436.90
644.00	418.96
645.00	414.27
646.00	411.93
647.00	415.06
648.00	418.18
649.00	418.96
650.00	444.70
651.00	461.09
652.00	459.53
653.00	433.00
654.00	487.61
655.00	485.27
656.00	518.04
657.00	456.40
658.00	476.69
659.00	438.46
660.00	446.26
661.00	423.64
662.00	458.74
663.00	433.78
664.00	463.43
665.00	443.92
666.00	441.58
667.00	433.00
668.00	417.40
669.00	433.78
670.00	432.22
671.00	454.84
672.00	443.92
673.00	437.68
674.00	402.57
675.00	415.84
676.00	396.33
677.00	429.88
678.00	422.08
679.00	461.87
680.00	457.18
681.00	475.13
682.00	461.87
683.00	447.82
684.00	438.46
685.00	453.28
686.00	472.01
687.00	453.28
688.00	411.15
689.00	393.99
690.00	413.49
691.00	412.71
692.00	394.77
693.00	379.95
694.00	388.53
695.00	405.69
696.00	420.52
697.00	412.71
698.00	398.67
699.00	372.15
700.00	401.01
701.00	397.89
702.00	430.66
703.00	408.81
704.00	436.90
705.00	420.52
706.00	415.06
707.00	374.49
708.00	391.65
709.00	420.52
710.00	452.50
711.00	424.42
712.00	411.15
713.00	398.67
714.00	423.64
715.00	424.42
716.00	454.06
717.00	475.91
718.00	511.80
719.00	504.00
720.00	479.81
721.00	432.22
722.00	411.15
723.00	389.31
724.00	369.02
725.00	362.78
726.00	379.17
727.00	429.10
728.00	429.88
729.00	432.22
730.00	425.20
731.00	437.68
732.00	461.87
733.00	461.87
734.00	479.81
735.00	498.53
736.00	493.07
737.00	491.51
738.00	478.25
739.00	480.59
740.00	467.33
741.00	450.94
742.00	440.80
743.00	489.95
744.00	493.07
745.00	489.17
746.00	426.76
747.00	411.93
748.00	418.96
749.00	444.70
750.00	425.98
751.00	429.10
752.00	425.20
753.00	440.02
754.00	441.58
755.00	439.24
756.00	440.80
757.00	454.84
758.00	457.18
759.00	454.06
760.00	449.38
761.00	450.94
762.00	441.58
763.00	440.80
764.00	445.48
765.00	448.60
766.00	435.34
767.00	442.36
768.00	446.26
769.00	458.75
770.00	448.60
771.00	454.84
772.00	450.94
773.00	468.89
774.00	468.11
775.00	475.13
776.00	448.60
777.00	441.58
778.00	442.36
779.00	463.43
780.00	524.28
781.00	567.19
782.00	574.99
783.00	630.38
784.00	574.99
785.00	551.59
786.00	447.82
787.00	442.36
788.00	461.87
789.00	441.58
790.00	434.56
791.00	409.59
792.00	435.34
793.00	429.88
794.00	433.00
795.00	427.54
796.00	436.90
797.00	441.58
798.00	447.04
799.00	465.77
800.00	450.16
801.00	418.18
802.00	397.89
803.00	412.71
804.00	443.92
805.00	435.34
806.00	421.30
807.00	411.15
808.00	431.44
809.00	438.46
810.00	426.76
811.00	448.60
812.00	450.16
813.00	471.23
814.00	417.40
815.00	433.78
816.00	403.35
817.00	445.48
818.00	446.26
819.00	455.62
820.00	443.14
821.00	447.04
822.00	479.03
823.00	517.26
824.00	503.22
825.00	488.39
826.00	455.62
827.00	439.24
828.00	443.92
829.00	447.04
830.00	471.23
831.00	457.96
832.00	468.89
833.00	496.97
834.00	531.30
835.00	527.40
836.00	508.68
837.00	468.11
838.00	470.45
839.00	434.56
840.00	440.80
841.00	415.84
842.00	457.18
843.00	479.81
844.00	495.41
845.00	483.71
846.00	461.87
847.00	433.78
848.00	401.79
849.00	409.59
850.00	412.71
851.00	419.74
852.00	408.81
853.00	416.62
854.00	417.40
855.00	421.30
856.00	436.90
857.00	436.12
858.00	435.34
859.00	429.10
860.00	457.96
861.00	464.99
862.00	447.04
863.00	443.14
864.00	409.59
865.00	411.15
866.00	407.25
867.00	429.88
868.00	436.12
869.00	428.32
870.00	444.70
871.00	459.53
872.00	467.33
873.00	453.28
874.00	443.14
875.00	440.02
876.00	436.90
877.00	432.22
878.00	457.96
879.00	449.38
880.00	456.40
881.00	447.82
882.00	465.77
883.00	473.57
884.00	456.40
885.00	450.94
886.00	472.01
887.00	470.45
888.00	461.87
889.00	457.18
890.00	443.14
891.00	456.40
892.00	425.98
893.00	450.94
894.00	429.10
895.00	434.56
896.00	421.30
897.00	433.00
898.00	417.40
899.00	452.50
900.00	461.09
901.00	470.45
902.00	478.25
903.00	533.64
904.00	655.35
905.00	730.25
906.00	785.64
907.00	780.96
908.00	741.17
909.00	964.30
910.00	985.37
911.00	1092.25
912.00	922.95
913.00	940.90
914.00	876.14
915.00	753.65
916.00	637.41
917.00	535.20
918.00	492.29
919.00	492.29
920.00	475.91
921.00	472.79
922.00	457.18
923.00	470.45
924.00	488.39
925.00	460.31
926.00	438.46
927.00	435.34
928.00	459.53
929.00	457.96
930.00	439.24
931.00	444.70
932.00	433.78
933.00	429.10
934.00	409.59
935.00	424.42
936.00	445.48
937.00	457.18
938.00	454.06
939.00	464.21
940.00	448.60
941.00	449.38
942.00	455.62
943.00	611.66
944.00	1047.00
945.00	1882.57
946.00	2874.96
947.00	3644.99
948.00	3685.56
949.00	3199.51
950.00	2381.89
951.00	1629.01
952.00	1043.10
953.00	699.82
954.00	544.56
955.00	485.27
956.00	460.31
957.00	482.15
958.00	489.17
959.00	456.40
960.00	437.68
961.00	415.84
962.00	443.14
963.00	458.74
964.00	458.74
965.00	464.21
966.00	458.74
967.00	476.69
968.00	488.39
969.00	455.62
970.00	441.58
971.00	407.25
972.00	447.04
973.00	444.70
974.00	466.55
975.00	454.06
976.00	441.58
977.00	422.86
978.00	416.62
979.00	434.56
980.00	414.27
981.00	406.47
982.00	393.99
983.00	411.93
984.00	409.59
985.00	427.54
986.00	450.94
987.00	469.67
988.00	454.84
989.00	446.26
990.00	449.38
991.00	445.48
992.00	460.31
993.00	450.16
994.00	440.80
995.00	408.03
996.00	408.81
997.00	422.08
998.00	411.93
999.00	408.03
1000.00	425.20
1001.00	461.87
1002.00	474.35
1003.00	454.84
1004.00	455.62
1005.00	444.70
1006.00	447.82
1007.00	434.56
1008.00	441.58
1009.00	476.69
1010.00	473.57
1011.00	476.69
1012.00	448.60
1013.00	439.24
1014.00	442.36
1015.00	458.75
1016.00	455.62
1017.00	432.22
1018.00	428.32
1019.00	456.40
1020.00	467.33
1021.00	430.66
1022.00	422.08
1023.00	443.92
1024.00	466.55
1025.00	457.96
1026.00	450.16
1027.00	447.04
1028.00	436.90
1029.00	418.18
1030.00	446.26
1031.00	468.11
1032.00	468.11
1033.00	446.26
1034.00	409.59
1035.00	411.15
1036.00	419.74
1037.00	457.18
1038.00	465.77
1039.00	458.75
1040.00	468.89
1041.00	465.77
1042.00	480.59
1043.00	489.17
1044.00	501.65
1045.00	528.96
1046.00	493.85
1047.00	489.95
1048.00	449.38
1049.00	455.62
1050.00	442.36
1051.00	454.84
1052.00	445.48
1053.00	444.70
1054.00	425.98
1055.00	415.84
1056.00	430.66
1057.00	430.66
1058.00	461.09
1059.00	452.50
1060.00	445.48
1061.00	423.64
1062.00	438.46
1063.00	448.60
1064.00	474.35
1065.00	454.06
1066.00	457.96
1067.00	455.62
1068.00	462.65
1069.00	449.38
1070.00	428.32
1071.00	425.98
1072.00	445.48
1073.00	458.75
1074.00	471.23
1075.00	450.16
1076.00	442.36
1077.00	438.46
1078.00	454.06
1079.00	468.11
1080.00	463.43
1081.00	443.92
1082.00	430.66
1083.00	442.36
1084.00	447.04
1085.00	456.40
1086.00	465.77
1087.00	473.57
1088.00	461.87
1089.00	466.55
1090.00	479.81
1091.00	479.81
1092.00	475.91
1093.00	460.31
1094.00	458.74
1095.00	450.16
1096.00	458.75
1097.00	482.15
1098.00	496.19
1099.00	509.46
1100.00	543.78
1101.00	550.03
1102.00	567.97
1103.00	539.88
1104.00	533.64
1105.00	516.48
1106.00	497.75
1107.00	464.21
1108.00	440.02
1109.00	445.48
1110.00	448.60
1111.00	438.46
1112.00	418.96
1113.00	418.18
1114.00	436.90
1115.00	464.21
1116.00	447.04
1117.00	435.34
1118.00	433.78
1119.00	464.21
1120.00	504.78
1121.00	504.00
1122.00	553.93
1123.00	539.10
1124.00	543.00
1125.00	496.97
1126.00	478.25
1127.00	459.53
1128.00	444.70
1129.00	447.82
1130.00	457.96
1131.00	475.91
1132.00	475.91
1133.00	456.40
1134.00	450.16
1135.00	442.36
1136.00	459.53
1137.00	484.49
1138.00	511.02
1139.00	517.26
1140.00	511.80
1141.00	516.48
1142.00	511.80
1143.00	490.73
1144.00	457.96
1145.00	472.01
1146.00	472.79
1147.00	506.34
1148.00	500.87
1149.00	523.50
1150.00	528.18
1151.00	521.16
1152.00	495.41
1153.00	486.83
1154.00	527.40
1155.00	606.20
1156.00	677.98
1157.00	713.08
1158.00	691.24
1159.00	673.29
1160.00	644.43
1161.00	617.90
1162.00	568.75
1163.00	585.91
1164.00	759.89
1165.00	1050.12
1166.00	1422.27
1167.00	1618.87
1168.00	1632.91
1169.00	1498.72
1170.00	1246.73
1171.00	1031.40
1172.00	802.80
1173.00	692.80
1174.00	637.41
1175.00	612.44
1176.00	644.43
1177.00	608.54
1178.00	601.52
1179.00	578.11
1180.00	599.96
1181.00	585.13
1182.00	599.96
1183.00	592.94
1184.00	629.60
1185.00	620.24
1186.00	617.12
1187.00	616.34
1188.00	638.19
1189.00	699.82
1190.00	729.47
1191.00	780.96
1192.00	809.83
1193.00	862.88
1194.00	848.05
1195.00	866.00
1196.00	859.76
1197.00	878.48
1198.00	926.07
1199.00	1057.14
1200.00	1239.70
1201.00	1435.53
1202.00	1495.60
1203.00	1495.60
1204.00	1377.80
1205.00	1260.77
1206.00	1134.38
1207.00	1086.79
1208.00	1070.40
1209.00	1114.88
1210.00	1149.98
1211.00	1213.96
1212.00	1310.70
1213.00	1497.94
1214.00	1726.54
1215.00	2026.90
1216.00	2502.03
1217.00	5731.19
1218.00	21198.23
1219.00	41973.61
1220.00	59940.34
1221.00	65535.00
1222.00	65535.00
1223.00	65535.00
1224.00	65535.00
1225.00	65372.72
1226.00	56097.18
1227.00	40472.54
1228.00	21870.75
1229.00	10867.89
1230.00	5583.74
1231.00	3201.07
1232.00	2201.66
1233.00	1827.96
1234.00	1636.03
1235.00	1639.16
1236.00	2111.16
1237.00	3812.73
1238.00	7120.69
1239.00	11639.48
1240.00	15299.30
1241.00	16420.42
1242.00	14636.93
1243.00	11334.43
1244.00	7773.70
1245.00	4856.61
1246.00	2829.71
1247.00	1756.96
1248.00	1208.50
1249.00	968.20
1250.00	927.63
1251.00	976.78
1252.00	1081.33
1253.00	1171.05
1254.00	1222.54
1255.00	1230.34
1256.00	1199.13
1257.00	1151.54
1258.00	1053.24
1259.00	1001.75
1260.00	948.70
1261.00	923.73
1262.00	889.40
1263.00	862.88
1264.00	809.05
1265.00	788.76
1266.00	784.86
1267.00	814.51
1268.00	796.56
1269.00	778.62
1270.00	777.84
1271.00	778.62
1272.00	791.10
1273.00	807.48
1274.00	866.00
1275.00	1231.12
1276.00	3002.91
1277.00	7284.53
1278.00	14762.54
1279.00	22984.84
1280.00	28595.89
1281.00	28899.37
1282.00	24650.52
1283.00	18060.35
1284.00	11625.44
1285.00	6670.53
1286.00	3651.24
1287.00	2069.81
1288.00	1324.74
1289.00	1035.30
1290.00	910.47
1291.00	875.36
1292.00	866.78
1293.00	904.23
1294.00	902.67
1295.00	1108.63
1296.00	1699.23
1297.00	2913.19
1298.00	4615.54
1299.00	6158.73
1300.00	6847.63
1301.00	6304.62
1302.00	5112.51
1303.00	3658.26
1304.00	2500.47
1305.00	1614.19
1306.00	1179.63
1307.00	926.07
1308.00	850.39
1309.00	791.88
1310.00	780.18
1311.00	719.32
1312.00	682.66
1313.00	649.11
1314.00	620.24
1315.00	628.04
1316.00	594.50
1317.00	594.50
1318.00	567.19
1319.00	557.05
1320.00	539.10
1321.00	547.69
1322.00	553.15
1323.00	552.37
1324.00	521.16
1325.00	534.42
1326.00	549.25
1327.00	590.60
1328.00	595.28
1329.00	653.01
1330.00	969.76
1331.00	1873.99
1332.00	3467.89
1333.00	5437.06
1334.00	7005.22
1335.00	7401.55
1336.00	6648.68
1337.00	5211.59
1338.00	3686.34
1339.00	2416.99
1340.00	1504.18
1341.00	1044.66
1342.00	798.90
1343.00	681.88
1344.00	605.42
1345.00	600.74
1346.00	626.48
1347.00	656.13
1348.00	681.88
1349.00	667.83
1350.00	674.85
1351.00	648.33
1352.00	657.69
1353.00	669.39
1354.00	707.62
1355.00	743.51
1356.00	770.04
1357.00	846.49
1358.00	1409.78
1359.00	3496.76
1360.00	7687.88
1361.00	14192.23
1362.00	20475.79
1363.00	24047.44
1364.00	22967.68
1365.00	18999.69
1366.00	13599.29
1367.00	8910.42
1368.00	5091.45
1369.00	2996.67
1370.00	1859.95
1371.00	1480.78
1372.00	2133.01
1373.00	5486.22
1374.00	12927.56
1375.00	24439.09
1376.00	35797.71
1377.00	42359.80
1378.00	41028.03
1379.00	34399.63
1380.00	24792.51
1381.00	15984.30
1382.00	8915.10
1383.00	4876.12
1384.00	2743.11
1385.00	1670.36
1386.00	1158.57
1387.00	977.56
1388.00	859.76
1389.00	839.47
1390.00	799.68
1391.00	797.34
1392.00	797.34
1393.00	798.90
1394.00	903.45
1395.00	1081.33
1396.00	1398.08
1397.00	1709.37
1398.00	1874.77
1399.00	1888.81
1400.00	1807.67
1401.00	1711.71
1402.00	2186.06
1403.00	5640.69
1404.00	14831.19
1405.00	30678.18
1406.00	46550.13
1407.00	57104.39
1408.00	58923.77
1409.00	54678.04
1410.00	44814.24
1411.00	31716.60
1412.00	18946.64
1413.00	10084.59
1414.00	5348.12
1415.00	3082.49
1416.00	2497.35
1417.00	3621.59
1418.00	6677.55
1419.00	11215.07
1420.00	15419.45
1421.00	17415.93
1422.00	16413.40
1423.00	13410.49
1424.00	9721.02
1425.00	6316.33
1426.00	3729.25
1427.00	2167.34
1428.00	1408.22
1429.00	1054.02
1430.00	936.99
1431.00	837.13
1432.00	812.95
1433.00	775.50
1434.00	766.92
1435.00	743.51
1436.00	716.98
1437.00	692.80
1438.00	649.89
1439.00	616.34
1440.00	618.68
1441.00	629.60
1442.00	614.00
1443.00	596.06
1444.00	578.89
1445.00	574.21
1446.00	593.72
1447.00	593.72
1448.00	628.04
1449.00	642.09
1450.00	680.32
1451.00	935.43
1452.00	1819.38
1453.00	3619.25
1454.00	6294.48
1455.00	8857.37
1456.00	10263.25
1457.00	9906.71
1458.00	8474.30
1459.00	6409.95
1460.00	4404.89
1461.00	2648.71
1462.00	1579.86
1463.00	1049.34
1464.00	805.14
1465.00	707.62
1466.00	651.45
1467.00	631.16
1468.00	618.68
1469.00	611.66
1470.00	580.45
1471.00	584.35
1472.00	584.35
1473.00	596.84
1474.00	614.00
1475.00	604.64
1476.00	631.16
1477.00	628.04
1478.00	695.14
1479.00	670.17
1480.00	695.14
1481.00	693.58
1482.00	797.34
1483.00	1228.00
1484.00	3147.24
1485.00	7728.45
1486.00	15898.48
1487.00	25662.41
1488.00	33333.13
1489.00	35331.95
1490.00	31901.50
1491.00	25184.16
1492.00	17597.71
1493.00	10840.58
1494.00	5968.37
1495.00	3278.31
1496.00	1913.78
1497.00	1236.58
1498.00	908.13
1499.00	759.89
1500.00	694.36
1501.00	688.12
1502.00	667.05
1503.00	644.43
1504.00	622.58
1505.00	630.38
1506.00	656.91
1507.00	687.34
1508.00	719.32
1509.00	966.64
1510.00	1724.19
1511.00	3251.78
1512.00	5460.47
1513.00	7565.39
1514.00	8726.30
1515.00	8429.05
1516.00	7168.28
1517.00	5436.28
1518.00	3772.16
1519.00	2385.79
1520.00	1527.59
1521.00	1089.91
1522.00	905.79
1523.00	804.36
1524.00	753.65
1525.00	743.51
1526.00	747.41
1527.00	827.77
1528.00	1030.62
1529.00	2054.99
1530.00	4667.81
1531.00	9418.32
1532.00	15846.21
1533.00	21387.04
1534.00	23698.70
1535.00	22019.76
1536.00	18026.81
1537.00	13184.24
1538.00	8652.96
1539.00	4994.70
1540.00	2828.93
1541.00	1715.61
1542.00	1198.35
1543.00	943.24
1544.00	807.48
1545.00	724.79
1546.00	688.90
1547.00	692.02
1548.00	686.56
1549.00	687.34
1550.00	653.79
1551.00	672.51
1552.00	674.07
1553.00	712.30
1554.00	712.30
1555.00	731.81
1556.00	748.19
1557.00	789.54
1558.00	837.13
1559.00	877.70
1560.00	990.05
1561.00	1707.03
1562.00	4628.02
1563.00	11051.23
1564.00	21900.39
1565.00	33830.88
1566.00	42376.96
1567.00	43756.32
1568.00	39088.51
1569.00	30820.95
1570.00	21643.71
1571.00	13359.78
1572.00	7579.43
1573.00	4411.91
1574.00	3911.04
1575.00	7704.26
1576.00	17282.52
1577.00	32764.38
1578.00	47504.29
1579.00	57080.20
1580.00	58422.11
1581.00	54263.76
1582.00	45113.05
1583.00	32735.51
1584.00	20306.49
1585.00	11048.11
1586.00	5828.71
1587.00	3168.31
1588.00	1942.64
1589.00	1334.89
1590.00	1041.54
1591.00	908.91
1592.00	841.03
1593.00	795.78
1594.00	741.95
1595.00	695.14
1596.00	643.65
1597.00	650.67
1598.00	650.67
1599.00	656.13
1600.00	610.88
1601.00	596.84
1602.00	562.51
1603.00	555.49
1604.00	535.20
1605.00	568.75
1606.00	593.72
1607.00	628.04
1608.00	610.88
1609.00	583.57
1610.00	553.93
1611.00	553.15
1612.00	580.45
1613.00	596.06
1614.00	580.45
1615.00	569.53
1616.00	563.29
1617.00	537.54
1618.00	551.59
1619.00	543.00
1620.00	574.99
1621.00	564.85
1622.00	578.11
1623.00	569.53
1624.00	555.49
1625.00	560.95
1626.00	584.35
1627.00	609.32
1628.00	605.42
1629.00	599.18
1630.00	589.03
1631.00	589.03
1632.00	587.47
1633.00	566.41
1634.00	571.09
1635.00	596.06
1636.00	585.13
1637.00	586.69
1638.00	583.57
1639.00	611.66
1640.00	607.76
1641.00	605.42
1642.00	631.16
1643.00	679.54
1644.00	784.86
1645.00	1355.95
1646.00	3464.77
1647.00	8179.39
1648.00	16060.76
1649.00	25450.21
1650.00	32833.03
1651.00	34936.40
1652.00	32036.47
1653.00	26048.60
1654.00	19140.90
1655.00	12400.16
1656.00	7104.31
1657.00	3888.41
1658.00	2214.15
1659.00	1401.98
1660.00	1021.25
1661.00	841.03
1662.00	785.64
1663.00	875.36
1664.00	1472.98
1665.00	2893.68
1666.00	5321.60
1667.00	8393.94
1668.00	11069.95
1669.00	12217.60
1670.00	11557.57
1671.00	9701.52
1672.00	7360.20
1673.00	5089.88
1674.00	3171.43
1675.00	1928.60
1676.00	1217.08
1677.00	873.80
1678.00	714.64
1679.00	628.82
1680.00	564.85
1681.00	545.34
1682.00	505.56
1683.00	514.14
1684.00	517.26
1685.00	535.20
1686.00	527.40
1687.00	504.00
1688.00	528.18
1689.00	528.96
1690.00	541.44
1691.00	532.08
1692.00	517.26
1693.00	515.70
1694.00	494.63
1695.00	504.78
1696.00	500.09
1697.00	518.82
1698.00	530.52
1699.00	535.20
1700.00	541.44
1701.00	538.32
1702.00	544.56
1703.00	548.47
1704.00	583.57
1705.00	578.11
1706.00	553.93
1707.00	539.10
1708.00	624.92
1709.00	902.67
1710.00	1893.49
1711.00	4069.41
1712.00	7741.71
1713.00	12251.92
1714.00	15876.63
1715.00	17274.71
1716.00	16129.41
1717.00	13494.75
1718.00	10165.73
1719.00	6908.48
1720.00	4263.68
1721.00	2544.94
1722.00	1568.94
1723.00	1040.76
1724.00	788.76
1725.00	667.05
1726.00	615.56
1727.00	574.21
1728.00	547.69
1729.00	504.78
1730.00	504.78
1731.00	520.38
1732.00	560.17
1733.00	561.73
1734.00	553.15
1735.00	518.04
1736.00	496.97
1737.00	488.39
1738.00	486.83
1739.00	489.95
1740.00	514.14
1741.00	542.22
1742.00	541.44
1743.00	523.50
1744.00	523.50
1745.00	538.32
1746.00	523.50
1747.00	484.49
1748.00	483.71
1749.00	478.25
1750.00	522.72
1751.00	561.73
1752.00	603.08
1753.00	614.78
1754.00	606.20
1755.00	604.64
1756.00	596.06
1757.00	582.01
1758.00	606.98
1759.00	632.72
1760.00	641.31
1761.00	624.92
1762.00	630.38
1763.00	685.78
1764.00	784.08
1765.00	1466.74
1766.00	3679.32
1767.00	8099.03
1768.00	15135.46
1769.00	22856.11
1770.00	28879.87
1771.00	30483.92
1772.00	28068.48
1773.00	22927.11
1774.00	16805.83
1775.00	11001.30
1776.00	6527.75
1777.00	3745.64
1778.00	2232.09
1779.00	1430.07
1780.00	1068.84
1781.00	854.30
1782.00	725.57
1783.00	656.91
1784.00	629.60
1785.00	631.16
1786.00	621.80
1787.00	582.79
1788.00	578.11
1789.00	565.63
1790.00	609.32
1791.00	653.01
1792.00	830.11
1793.00	1600.15
1794.00	3531.09
1795.00	6906.14
1796.00	11561.47
1797.00	16066.22
1798.00	18699.32
1799.00	18536.26
1800.00	16084.94
1801.00	12591.30
1802.00	8906.52
1803.00	5694.52
1804.00	3435.91
1805.00	2038.61
1806.00	1340.35
1807.00	937.77
1808.00	746.63
1809.00	615.56
1810.00	586.69
1811.00	557.83
1812.00	559.39
1813.00	556.27
1814.00	560.95
1815.00	564.07
1816.00	550.81
1817.00	540.66
1818.00	513.36
1819.00	514.92
1820.00	541.44
1821.00	603.08
1822.00	687.34
1823.00	740.39
1824.00	751.31
1825.00	696.70
1826.00	627.26
1827.00	574.21
1828.00	555.49
1829.00	543.78
1830.00	515.70
1831.00	479.81
1832.00	478.25
1833.00	479.81
1834.00	473.57
1835.00	469.67
1836.00	475.91
1837.00	484.49
1838.00	471.23
1839.00	451.72
1840.00	454.84
1841.00	456.40
1842.00	482.93
1843.00	486.83
1844.00	474.35
1845.00	470.45
1846.00	457.18
1847.00	479.81
1848.00	479.81
1849.00	500.09
1850.00	464.99
1851.00	457.96
1852.00	427.54
1853.00	450.94
1854.00	429.88
1855.00	444.70
1856.00	440.02
1857.00	464.21
1858.00	447.82
1859.00	468.11
1860.00	450.16
1861.00	464.99
1862.00	435.34
1863.00	462.65
1864.00	447.04
1865.00	440.80
1866.00	424.42
1867.00	418.18
1868.00	424.42
1869.00	447.82
1870.00	475.13
1871.00	495.41
1872.00	479.03
1873.00	475.91
1874.00	465.77
1875.00	458.75
1876.00	436.90
1877.00	440.80
1878.00	439.24
1879.00	462.65
1880.00	468.11
1881.00	474.35
1882.00	466.55
1883.00	459.53
1884.00	446.26
1885.00	448.60
1886.00	425.98
1887.00	426.76
1888.00	411.93
1889.00	454.06
1890.00	461.87
1891.00	485.27
1892.00	454.06
1893.00	447.04
1894.00	417.40
1895.00	411.15
1896.00	403.35
1897.00	423.64
1898.00	436.12
1899.00	455.62
1900.00	459.53
1901.00	440.80
1902.00	433.78
1903.00	441.58
1904.00	509.46
1905.00	502.43
1906.00	507.12
1907.00	492.29
1908.00	576.55
1909.00	609.32
1910.00	643.65
1911.00	603.08
1912.00	599.18
1913.00	566.41
1914.00	555.49
1915.00	516.48
1916.00	503.22
1917.00	484.49
1918.00	483.71
1919.00	469.67
1920.00	473.57
1921.00	486.83
1922.00	471.23
1923.00	464.21
1924.00	431.44
1925.00	435.34
1926.00	425.98
1927.00	446.26
1928.00	436.90
1929.00	445.48
1930.00	454.06
1931.00	482.93
1932.00	497.75
1933.00	504.78
1934.00	489.17
1935.00	486.83
1936.00	461.87
1937.00	472.01
1938.00	464.99
1939.00	474.35
1940.00	491.51
1941.00	481.37
1942.00	494.63
1943.00	474.35
1944.00	502.44
1945.00	520.38
1946.00	614.78
1947.00	968.98
1948.00	2059.67
1949.00	4051.47
1950.00	7150.34
1951.00	10542.55
1952.00	13462.76
1953.00	14441.89
1954.00	13686.67
1955.00	11690.98
1956.00	9321.57
1957.00	6913.94
1958.00	4730.22
1959.00	3126.18
1960.00	2067.47
1961.00	1407.44
1962.00	1030.62
1963.00	784.86
1964.00	645.99
1965.00	567.19
1966.00	533.64
1967.00	508.68
1968.00	493.07
1969.00	479.81
1970.00	489.95
1971.00	482.15
1972.00	468.11
1973.00	484.49
1974.00	518.82
1975.00	626.48
1976.00	729.47
1977.00	893.30
1978.00	1071.19
1979.00	1207.72
1980.00	1266.23
1981.00	1215.52
1982.00	1133.60
1983.00	999.41
1984.00	865.22
1985.00	752.87
1986.00	653.79
1987.00	586.69
1988.00	528.96
1989.00	528.96
1990.00	497.75
1991.00	461.09
1992.00	449.38
1993.00	472.01
1994.00	508.68
1995.00	487.61
1996.00	475.91
1997.00	466.55
1998.00	493.07
1999.00	500.09
2000.00	508.68
2001.00	499.31
2002.00	532.08
2003.00	532.86
2004.00	523.50
2005.00	482.93
2006.00	494.63
2007.00	513.36
2008.00	556.27
2009.00	535.98
2010.00	515.70
2011.00	483.71
2012.00	503.22
2013.00	530.52
2014.00	535.98
2015.00	518.82
2016.00	524.28
2017.00	535.20
2018.00	555.49
2019.00	612.44
2020.00	729.47
2021.00	923.73
2022.00	1127.36
2023.00	1359.07
2024.00	1910.66
2025.00	3437.47
2026.00	6735.28
2027.00	11870.42
2028.00	18743.79
2029.00	25069.48
2030.00	29466.56
2031.00	29969.00
2032.00	28024.79
2033.00	23902.33
2034.00	19037.14
2035.00	13834.91
2036.00	9471.37
2037.00	6219.58
2038.00	3982.81
2039.00	2508.27
2040.00	1623.55
2041.00	1166.37
2042.00	917.49
2043.00	801.24
2044.00	709.18
2045.00	681.10
2046.00	656.91
2047.00	627.26
>>>>>End Processed Spectral Data<<<<<
