SpectraSuite Data File
++++++++++++++++++++++++++++++++++++
Date: Thu Nov 16 13:55:14 EST 2017
User: cheriyan
Dark Spectrum Present: No
Reference Spectrum Present: No
Number of Sampled Component Spectra: 1
Spectrometers: USB2+H05261
Integration Time (usec): 100000 (USB2+H05261)
Spectra Averaged: 1 (USB2+H05261)
Boxcar Smoothing: 1 (USB2+H05261)
Correct for Electrical Dark: No (USB2+H05261)
Strobe/Lamp Enabled: No (USB2+H05261)
Correct for Detector Non-linearity: No (USB2+H05261)
Correct for Stray Light: No (USB2+H05261)
Number of Pixels in Processed Spectrum: 2048
>>>>>Begin Processed Spectral Data<<<<<
0.00	355.76
1.00	355.76
2.00	356.54
3.00	311.29
4.00	252.00
5.00	219.23
6.00	191.92
7.00	206.75
8.00	192.70
9.00	228.59
10.00	234.83
11.00	246.54
12.00	259.02
13.00	252.00
14.00	237.17
15.00	213.77
16.00	224.69
17.00	237.17
18.00	238.73
19.00	234.83
20.00	244.20
21.00	273.06
22.00	306.61
23.00	323.77
24.00	328.46
25.00	320.65
26.00	332.36
27.00	357.32
28.00	363.56
29.00	393.21
30.00	371.36
31.00	376.05
32.00	366.68
33.00	375.27
34.00	390.87
35.00	393.21
36.00	392.43
37.00	390.09
38.00	397.11
39.00	414.27
40.00	414.27
41.00	397.89
42.00	390.09
43.00	411.93
44.00	442.36
45.00	452.50
46.00	453.28
47.00	424.42
48.00	436.12
49.00	424.42
50.00	435.34
51.00	432.22
52.00	452.50
53.00	452.50
54.00	425.98
55.00	397.11
56.00	366.68
57.00	392.43
58.00	403.35
59.00	425.98
60.00	410.37
61.00	401.79
62.00	398.67
63.00	401.01
64.00	409.59
65.00	402.57
66.00	393.21
67.00	383.07
68.00	388.53
69.00	408.81
70.00	410.37
71.00	426.76
72.00	433.00
73.00	438.46
74.00	426.76
75.00	406.47
76.00	390.87
77.00	372.93
78.00	383.85
79.00	411.15
80.00	436.90
81.00	410.37
82.00	392.43
83.00	362.78
84.00	372.15
85.00	347.96
86.00	357.32
87.00	374.49
88.00	402.57
89.00	418.96
90.00	393.99
91.00	391.65
92.00	388.53
93.00	387.75
94.00	376.05
95.00	358.88
96.00	386.97
97.00	388.53
98.00	401.01
99.00	407.25
100.00	412.71
101.00	399.45
102.00	365.90
103.00	404.91
104.00	406.47
105.00	411.15
106.00	361.22
107.00	378.39
108.00	392.43
109.00	410.37
110.00	392.43
111.00	405.69
112.00	397.11
113.00	440.80
114.00	457.18
115.00	451.72
116.00	417.40
117.00	405.69
118.00	414.27
119.00	429.88
120.00	415.06
121.00	405.69
122.00	407.25
123.00	393.99
124.00	423.64
125.00	417.40
126.00	413.49
127.00	391.65
128.00	387.75
129.00	391.65
130.00	389.31
131.00	384.63
132.00	379.95
133.00	399.45
134.00	395.55
135.00	418.18
136.00	428.32
137.00	433.00
138.00	426.76
139.00	397.89
140.00	422.86
141.00	421.30
142.00	422.86
143.00	408.03
144.00	445.48
145.00	489.95
146.00	494.63
147.00	494.63
148.00	486.05
149.00	487.61
150.00	482.15
151.00	434.56
152.00	424.42
153.00	407.25
154.00	446.26
155.00	423.64
156.00	410.37
157.00	386.97
158.00	404.13
159.00	404.13
160.00	408.03
161.00	407.25
162.00	410.37
163.00	390.09
164.00	397.11
165.00	411.93
166.00	442.36
167.00	450.94
168.00	425.98
169.00	412.71
170.00	377.61
171.00	383.07
172.00	382.29
173.00	390.09
174.00	397.11
175.00	409.59
176.00	409.59
177.00	400.23
178.00	391.65
179.00	405.69
180.00	414.27
181.00	411.15
182.00	425.20
183.00	436.90
184.00	414.27
185.00	387.75
186.00	375.27
187.00	405.69
188.00	411.93
189.00	408.03
190.00	377.61
191.00	398.67
192.00	399.45
193.00	459.53
194.00	454.06
195.00	476.69
196.00	496.19
197.00	531.30
198.00	538.32
199.00	486.83
200.00	443.14
201.00	432.22
202.00	432.22
203.00	438.46
204.00	425.98
205.00	412.71
206.00	396.33
207.00	386.19
208.00	404.91
209.00	412.71
210.00	433.00
211.00	418.18
212.00	404.91
213.00	369.80
214.00	385.41
215.00	411.93
216.00	426.76
217.00	401.01
218.00	404.13
219.00	418.96
220.00	444.70
221.00	427.54
222.00	422.08
223.00	426.76
224.00	412.71
225.00	390.87
226.00	355.76
227.00	364.34
228.00	346.40
229.00	367.46
230.00	363.56
231.00	397.89
232.00	385.41
233.00	379.95
234.00	387.75
235.00	379.95
236.00	393.21
237.00	376.83
238.00	395.55
239.00	378.39
240.00	406.47
241.00	386.19
242.00	416.62
243.00	398.67
244.00	425.98
245.00	406.47
246.00	394.77
247.00	408.81
248.00	420.52
249.00	430.66
250.00	393.21
251.00	386.19
252.00	396.33
253.00	435.34
254.00	447.04
255.00	490.73
256.00	483.71
257.00	472.79
258.00	434.56
259.00	421.30
260.00	423.64
261.00	403.35
262.00	394.77
263.00	413.49
264.00	436.12
265.00	466.55
266.00	457.18
267.00	497.75
268.00	540.66
269.00	574.99
270.00	565.63
271.00	566.41
272.00	614.78
273.00	647.55
274.00	633.50
275.00	614.78
276.00	599.18
277.00	589.82
278.00	550.81
279.00	527.40
280.00	497.75
281.00	459.53
282.00	422.08
283.00	422.86
284.00	438.46
285.00	426.76
286.00	418.96
287.00	435.34
288.00	449.38
289.00	443.92
290.00	418.96
291.00	432.22
292.00	418.18
293.00	398.67
294.00	378.39
295.00	385.41
296.00	408.81
297.00	428.32
298.00	426.76
299.00	429.10
300.00	415.06
301.00	423.64
302.00	421.30
303.00	433.78
304.00	450.16
305.00	476.69
306.00	486.83
307.00	537.54
308.00	613.22
309.00	659.25
310.00	645.99
311.00	578.11
312.00	547.69
313.00	511.80
314.00	498.53
315.00	482.15
316.00	471.23
317.00	465.77
318.00	445.48
319.00	443.92
320.00	419.74
321.00	418.18
322.00	418.18
323.00	435.34
324.00	433.78
325.00	451.72
326.00	447.82
327.00	450.16
328.00	425.20
329.00	417.40
330.00	414.27
331.00	419.74
332.00	418.96
333.00	418.96
334.00	422.08
335.00	425.20
336.00	418.96
337.00	420.52
338.00	430.66
339.00	428.32
340.00	433.78
341.00	440.80
342.00	445.48
343.00	449.38
344.00	440.80
345.00	460.31
346.00	507.12
347.00	590.60
348.00	711.52
349.00	748.97
350.00	710.74
351.00	608.54
352.00	558.61
353.00	526.62
354.00	536.76
355.00	514.14
356.00	497.75
357.00	493.85
358.00	470.45
359.00	447.82
360.00	408.03
361.00	443.14
362.00	441.58
363.00	458.75
364.00	408.81
365.00	456.40
366.00	457.18
367.00	458.75
368.00	454.84
369.00	445.48
370.00	449.38
371.00	423.64
372.00	398.67
373.00	419.74
374.00	407.25
375.00	397.89
376.00	379.17
377.00	380.73
378.00	401.01
379.00	388.53
380.00	393.21
381.00	390.09
382.00	401.79
383.00	401.01
384.00	420.52
385.00	417.40
386.00	435.34
387.00	393.21
388.00	393.21
389.00	365.12
390.00	389.31
391.00	366.68
392.00	394.77
393.00	397.11
394.00	422.86
395.00	417.40
396.00	426.76
397.00	454.06
398.00	465.77
399.00	473.57
400.00	443.92
401.00	438.46
402.00	402.57
403.00	394.77
404.00	368.24
405.00	384.63
406.00	388.53
407.00	394.77
408.00	418.96
409.00	420.52
410.00	428.32
411.00	374.49
412.00	377.61
413.00	376.05
414.00	394.77
415.00	393.99
416.00	401.01
417.00	418.18
418.00	406.47
419.00	383.85
420.00	375.27
421.00	374.49
422.00	388.53
423.00	391.65
424.00	400.23
425.00	405.69
426.00	390.87
427.00	371.36
428.00	372.15
429.00	387.75
430.00	400.23
431.00	376.05
432.00	359.66
433.00	391.65
434.00	424.42
435.00	445.48
436.00	422.08
437.00	411.15
438.00	408.03
439.00	411.93
440.00	431.44
441.00	457.18
442.00	484.49
443.00	487.61
444.00	468.11
445.00	448.60
446.00	430.66
447.00	410.37
448.00	402.57
449.00	380.73
450.00	418.96
451.00	457.96
452.00	480.59
453.00	488.39
454.00	446.26
455.00	439.24
456.00	428.32
457.00	457.18
458.00	473.57
459.00	472.79
460.00	447.82
461.00	416.62
462.00	389.31
463.00	379.17
464.00	379.17
465.00	393.99
466.00	431.44
467.00	451.72
468.00	445.48
469.00	414.27
470.00	403.35
471.00	430.66
472.00	463.43
473.00	486.05
474.00	430.66
475.00	425.20
476.00	382.29
477.00	393.99
478.00	378.39
479.00	404.13
480.00	403.35
481.00	380.73
482.00	389.31
483.00	415.06
484.00	425.20
485.00	403.35
486.00	423.64
487.00	418.96
488.00	440.80
489.00	393.99
490.00	401.79
491.00	415.84
492.00	453.28
493.00	462.65
494.00	451.72
495.00	427.54
496.00	442.36
497.00	450.94
498.00	462.65
499.00	446.26
500.00	447.04
501.00	475.91
502.00	459.53
503.00	422.08
504.00	377.61
505.00	402.57
506.00	443.14
507.00	454.84
508.00	422.08
509.00	403.35
510.00	393.21
511.00	395.55
512.00	417.40
513.00	441.58
514.00	466.55
515.00	413.49
516.00	388.53
517.00	393.99
518.00	449.38
519.00	461.87
520.00	443.14
521.00	405.69
522.00	419.74
523.00	434.56
524.00	440.02
525.00	453.28
526.00	443.14
527.00	445.48
528.00	415.84
529.00	414.27
530.00	411.93
531.00	426.76
532.00	433.78
533.00	443.14
534.00	434.56
535.00	454.06
536.00	481.37
537.00	475.13
538.00	438.46
539.00	427.54
540.00	443.92
541.00	429.88
542.00	399.45
543.00	387.75
544.00	411.93
545.00	423.64
546.00	422.86
547.00	443.14
548.00	437.68
549.00	455.62
550.00	443.92
551.00	447.04
552.00	429.88
553.00	411.15
554.00	418.96
555.00	418.96
556.00	450.94
557.00	455.62
558.00	462.65
559.00	441.58
560.00	422.86
561.00	430.66
562.00	453.28
563.00	461.09
564.00	437.68
565.00	443.14
566.00	454.84
567.00	470.45
568.00	422.08
569.00	415.06
570.00	400.23
571.00	438.46
572.00	436.12
573.00	445.48
574.00	416.62
575.00	428.32
576.00	433.00
577.00	438.46
578.00	396.33
579.00	389.31
580.00	401.79
581.00	406.47
582.00	386.19
583.00	386.19
584.00	401.01
585.00	438.46
586.00	442.36
587.00	427.54
588.00	397.11
589.00	373.71
590.00	394.77
591.00	393.21
592.00	420.52
593.00	434.56
594.00	446.26
595.00	433.00
596.00	411.93
597.00	438.46
598.00	458.74
599.00	453.28
600.00	448.60
601.00	412.71
602.00	399.45
603.00	393.21
604.00	393.21
605.00	417.40
606.00	423.64
607.00	437.68
608.00	429.88
609.00	392.43
610.00	386.19
611.00	435.34
612.00	464.21
613.00	495.41
614.00	455.62
615.00	433.00
616.00	407.25
617.00	395.55
618.00	397.11
619.00	397.89
620.00	411.15
621.00	436.90
622.00	450.94
623.00	456.40
624.00	450.16
625.00	436.12
626.00	434.56
627.00	427.54
628.00	433.00
629.00	425.98
630.00	411.93
631.00	423.64
632.00	435.34
633.00	480.59
634.00	455.62
635.00	428.32
636.00	411.15
637.00	443.92
638.00	488.39
639.00	514.92
640.00	504.00
641.00	486.05
642.00	447.04
643.00	419.74
644.00	418.18
645.00	408.03
646.00	424.42
647.00	429.10
648.00	419.74
649.00	425.98
650.00	442.36
651.00	483.71
652.00	479.81
653.00	448.60
654.00	470.45
655.00	470.45
656.00	480.59
657.00	436.90
658.00	462.65
659.00	454.06
660.00	440.02
661.00	421.30
662.00	435.34
663.00	454.06
664.00	443.14
665.00	445.48
666.00	447.82
667.00	472.01
668.00	479.81
669.00	480.59
670.00	469.67
671.00	482.93
672.00	479.03
673.00	486.05
674.00	439.24
675.00	422.08
676.00	391.65
677.00	399.45
678.00	426.76
679.00	442.36
680.00	436.90
681.00	402.57
682.00	400.23
683.00	401.01
684.00	422.86
685.00	440.02
686.00	444.70
687.00	432.22
688.00	399.45
689.00	406.47
690.00	404.91
691.00	436.90
692.00	443.92
693.00	440.02
694.00	435.34
695.00	447.04
696.00	450.94
697.00	437.68
698.00	396.33
699.00	379.17
700.00	389.31
701.00	423.64
702.00	450.16
703.00	425.20
704.00	398.67
705.00	395.55
706.00	422.08
707.00	439.24
708.00	445.48
709.00	414.27
710.00	401.79
711.00	382.29
712.00	418.18
713.00	431.44
714.00	429.10
715.00	417.40
716.00	408.81
717.00	422.08
718.00	461.87
719.00	464.99
720.00	474.35
721.00	440.02
722.00	481.37
723.00	478.25
724.00	458.74
725.00	429.10
726.00	412.71
727.00	431.44
728.00	411.15
729.00	459.53
730.00	472.79
731.00	494.63
732.00	464.21
733.00	464.99
734.00	489.17
735.00	533.64
736.00	551.59
737.00	526.62
738.00	469.67
739.00	433.00
740.00	414.27
741.00	426.76
742.00	423.64
743.00	454.84
744.00	462.65
745.00	473.57
746.00	440.02
747.00	433.78
748.00	422.08
749.00	418.96
750.00	429.10
751.00	445.48
752.00	460.31
753.00	437.68
754.00	436.12
755.00	416.62
756.00	425.20
757.00	432.22
758.00	454.84
759.00	472.79
760.00	461.09
761.00	468.89
762.00	465.77
763.00	476.69
764.00	492.29
765.00	468.11
766.00	456.40
767.00	435.34
768.00	458.75
769.00	443.14
770.00	439.24
771.00	436.90
772.00	460.31
773.00	455.62
774.00	446.26
775.00	426.76
776.00	433.00
777.00	419.74
778.00	445.48
779.00	475.13
780.00	522.72
781.00	534.42
782.00	550.81
783.00	615.56
784.00	605.42
785.00	553.93
786.00	446.26
787.00	427.54
788.00	427.54
789.00	449.38
790.00	436.90
791.00	436.12
792.00	421.30
793.00	435.34
794.00	460.31
795.00	473.57
796.00	475.13
797.00	450.94
798.00	454.84
799.00	480.59
800.00	480.59
801.00	473.57
802.00	468.11
803.00	472.79
804.00	464.21
805.00	443.92
806.00	440.80
807.00	433.78
808.00	415.84
809.00	408.81
810.00	420.52
811.00	432.22
812.00	421.30
813.00	389.31
814.00	391.65
815.00	401.01
816.00	419.74
817.00	429.88
818.00	451.72
819.00	450.94
820.00	465.77
821.00	474.35
822.00	499.31
823.00	502.43
824.00	475.13
825.00	462.65
826.00	453.28
827.00	450.94
828.00	425.98
829.00	414.27
830.00	461.87
831.00	472.01
832.00	493.85
833.00	443.92
834.00	468.89
835.00	447.04
836.00	443.92
837.00	452.50
838.00	445.48
839.00	472.01
840.00	445.48
841.00	436.90
842.00	444.70
843.00	458.74
844.00	495.41
845.00	468.89
846.00	474.35
847.00	455.62
848.00	454.06
849.00	429.88
850.00	421.30
851.00	410.37
852.00	395.55
853.00	378.39
854.00	380.73
855.00	400.23
856.00	420.52
857.00	424.42
858.00	424.42
859.00	408.03
860.00	411.93
861.00	434.56
862.00	465.77
863.00	481.37
864.00	454.06
865.00	443.92
866.00	433.00
867.00	439.24
868.00	434.56
869.00	427.54
870.00	429.88
871.00	436.12
872.00	463.43
873.00	450.16
874.00	432.22
875.00	426.76
876.00	462.65
877.00	486.05
878.00	496.97
879.00	471.23
880.00	457.18
881.00	447.82
882.00	465.77
883.00	483.71
884.00	472.79
885.00	442.36
886.00	441.58
887.00	439.24
888.00	465.77
889.00	447.04
890.00	436.90
891.00	429.88
892.00	418.18
893.00	424.42
894.00	428.32
895.00	441.58
896.00	453.28
897.00	443.14
898.00	453.28
899.00	455.62
900.00	459.53
901.00	448.60
902.00	470.45
903.00	547.69
904.00	683.44
905.00	777.06
906.00	831.67
907.00	775.50
908.00	744.29
909.00	977.56
910.00	1020.47
911.00	1066.50
912.00	879.26
913.00	906.57
914.00	864.44
915.00	734.93
916.00	631.94
917.00	580.45
918.00	548.47
919.00	508.68
920.00	440.80
921.00	444.70
922.00	451.72
923.00	480.59
924.00	480.59
925.00	470.45
926.00	461.09
927.00	451.72
928.00	430.66
929.00	425.98
930.00	433.00
931.00	437.68
932.00	447.04
933.00	410.37
934.00	432.22
935.00	450.94
936.00	480.59
937.00	476.69
938.00	467.33
939.00	449.38
940.00	451.72
941.00	452.50
942.00	495.41
943.00	624.92
944.00	1066.50
945.00	1905.20
946.00	2936.59
947.00	3707.41
948.00	3711.31
949.00	3219.02
950.00	2359.26
951.00	1653.20
952.00	1056.36
953.00	729.47
954.00	592.16
955.00	511.80
956.00	482.15
957.00	465.77
958.00	454.06
959.00	461.87
960.00	447.04
961.00	444.70
962.00	434.56
963.00	440.80
964.00	459.53
965.00	460.31
966.00	441.58
967.00	426.76
968.00	436.12
969.00	440.80
970.00	438.46
971.00	430.66
972.00	440.80
973.00	455.62
974.00	471.23
975.00	473.57
976.00	485.27
977.00	464.21
978.00	445.48
979.00	429.88
980.00	436.90
981.00	429.88
982.00	431.44
983.00	412.71
984.00	412.71
985.00	388.53
986.00	384.63
987.00	376.83
988.00	414.27
989.00	416.62
990.00	433.78
991.00	415.06
992.00	423.64
993.00	417.40
994.00	423.64
995.00	443.92
996.00	486.05
997.00	473.57
998.00	456.40
999.00	420.52
1000.00	440.80
1001.00	454.84
1002.00	472.79
1003.00	489.95
1004.00	489.17
1005.00	482.93
1006.00	497.75
1007.00	493.07
1008.00	469.67
1009.00	449.38
1010.00	461.87
1011.00	482.15
1012.00	482.93
1013.00	479.81
1014.00	478.25
1015.00	443.14
1016.00	422.86
1017.00	418.18
1018.00	431.44
1019.00	453.28
1020.00	458.75
1021.00	449.38
1022.00	424.42
1023.00	425.98
1024.00	446.26
1025.00	446.26
1026.00	440.80
1027.00	449.38
1028.00	468.89
1029.00	492.29
1030.00	474.35
1031.00	465.77
1032.00	456.40
1033.00	466.55
1034.00	449.38
1035.00	447.04
1036.00	443.14
1037.00	461.87
1038.00	456.40
1039.00	471.23
1040.00	475.13
1041.00	496.97
1042.00	467.33
1043.00	496.97
1044.00	521.94
1045.00	602.30
1046.00	571.09
1047.00	532.86
1048.00	467.33
1049.00	449.38
1050.00	432.22
1051.00	436.12
1052.00	429.88
1053.00	443.92
1054.00	435.34
1055.00	437.68
1056.00	431.44
1057.00	440.02
1058.00	444.70
1059.00	427.54
1060.00	417.40
1061.00	427.54
1062.00	421.30
1063.00	429.10
1064.00	436.12
1065.00	487.61
1066.00	490.73
1067.00	480.59
1068.00	475.13
1069.00	465.77
1070.00	454.06
1071.00	422.08
1072.00	440.02
1073.00	468.11
1074.00	480.59
1075.00	460.31
1076.00	436.12
1077.00	440.80
1078.00	457.96
1079.00	477.47
1080.00	472.01
1081.00	460.31
1082.00	475.91
1083.00	453.28
1084.00	450.94
1085.00	403.35
1086.00	423.64
1087.00	439.24
1088.00	461.09
1089.00	479.03
1090.00	470.45
1091.00	454.84
1092.00	438.46
1093.00	434.56
1094.00	463.43
1095.00	475.91
1096.00	481.37
1097.00	486.05
1098.00	486.05
1099.00	522.72
1100.00	551.59
1101.00	585.91
1102.00	562.51
1103.00	540.66
1104.00	522.72
1105.00	527.40
1106.00	506.34
1107.00	498.53
1108.00	482.15
1109.00	499.31
1110.00	470.45
1111.00	443.14
1112.00	415.84
1113.00	443.14
1114.00	474.35
1115.00	493.85
1116.00	464.99
1117.00	433.00
1118.00	428.32
1119.00	446.26
1120.00	474.35
1121.00	507.12
1122.00	543.00
1123.00	538.32
1124.00	494.63
1125.00	468.11
1126.00	476.69
1127.00	494.63
1128.00	465.77
1129.00	457.96
1130.00	453.28
1131.00	461.87
1132.00	458.75
1133.00	450.94
1134.00	440.80
1135.00	447.82
1136.00	481.37
1137.00	546.12
1138.00	535.20
1139.00	546.91
1140.00	539.88
1141.00	551.59
1142.00	513.36
1143.00	473.57
1144.00	447.82
1145.00	440.02
1146.00	442.36
1147.00	457.96
1148.00	474.35
1149.00	476.69
1150.00	483.71
1151.00	478.25
1152.00	486.83
1153.00	501.65
1154.00	560.17
1155.00	607.76
1156.00	699.82
1157.00	722.45
1158.00	718.54
1159.00	685.78
1160.00	638.19
1161.00	628.82
1162.00	582.79
1163.00	631.94
1164.00	792.66
1165.00	1092.25
1166.00	1405.88
1167.00	1663.34
1168.00	1708.59
1169.00	1583.76
1170.00	1300.56
1171.00	1007.99
1172.00	805.92
1173.00	676.41
1174.00	631.94
1175.00	590.60
1176.00	582.79
1177.00	585.91
1178.00	596.84
1179.00	578.89
1180.00	575.77
1181.00	576.55
1182.00	614.78
1183.00	653.79
1184.00	678.76
1185.00	658.47
1186.00	624.92
1187.00	634.29
1188.00	663.93
1189.00	757.55
1190.00	803.58
1191.00	885.50
1192.00	913.59
1193.00	928.41
1194.00	887.06
1195.00	856.64
1196.00	829.33
1197.00	846.49
1198.00	875.36
1199.00	1004.09
1200.00	1185.09
1201.00	1406.66
1202.00	1495.60
1203.00	1494.82
1204.00	1401.20
1205.00	1320.06
1206.00	1221.76
1207.00	1138.28
1208.00	1135.16
1209.00	1159.35
1210.00	1196.79
1211.00	1231.90
1212.00	1348.93
1213.00	1518.23
1214.00	1740.58
1215.00	1978.53
1216.00	2459.90
1217.00	5712.47
1218.00	21101.49
1219.00	41894.81
1220.00	59827.99
1221.00	65535.00
1222.00	65535.00
1223.00	65535.00
1224.00	65535.00
1225.00	65376.62
1226.00	56254.78
1227.00	40635.60
1228.00	21941.74
1229.00	10728.24
1230.00	5414.44
1231.00	3097.31
1232.00	2184.50
1233.00	1824.84
1234.00	1696.89
1235.00	1650.08
1236.00	2137.69
1237.00	3800.25
1238.00	7176.08
1239.00	11700.34
1240.00	15377.32
1241.00	16428.22
1242.00	14662.68
1243.00	11304.01
1244.00	7756.54
1245.00	4797.32
1246.00	2792.26
1247.00	1732.00
1248.00	1195.23
1249.00	949.48
1250.00	912.81
1251.00	969.76
1252.00	1082.11
1253.00	1164.81
1254.00	1208.50
1255.00	1178.07
1256.00	1120.34
1257.00	1063.38
1258.00	1007.99
1259.00	964.30
1260.00	915.93
1261.00	925.29
1262.00	915.93
1263.00	897.99
1264.00	851.96
1265.00	800.46
1266.00	771.60
1267.00	752.87
1268.00	748.19
1269.00	748.97
1270.00	773.16
1271.00	802.80
1272.00	804.36
1273.00	804.36
1274.00	839.47
1275.00	1223.32
1276.00	2980.28
1277.00	7232.26
1278.00	14561.25
1279.00	22798.38
1280.00	28449.99
1281.00	28701.99
1282.00	24545.98
1283.00	17914.46
1284.00	11671.47
1285.00	6626.84
1286.00	3661.38
1287.00	2069.03
1288.00	1335.67
1289.00	1012.67
1290.00	915.15
1291.00	862.88
1292.00	855.08
1293.00	872.24
1294.00	885.50
1295.00	1083.67
1296.00	1698.45
1297.00	2995.89
1298.00	4701.36
1299.00	6241.43
1300.00	6761.03
1301.00	6284.34
1302.00	5074.28
1303.00	3720.67
1304.00	2499.69
1305.00	1587.66
1306.00	1164.03
1307.00	955.72
1308.00	893.30
1309.00	835.57
1310.00	781.74
1311.00	710.74
1312.00	643.65
1313.00	614.00
1314.00	600.74
1315.00	580.45
1316.00	560.95
1317.00	550.03
1318.00	539.88
1319.00	545.34
1320.00	544.56
1321.00	534.42
1322.00	532.08
1323.00	535.98
1324.00	566.41
1325.00	595.28
1326.00	605.42
1327.00	603.08
1328.00	594.50
1329.00	658.47
1330.00	1022.81
1331.00	1939.52
1332.00	3568.54
1333.00	5511.96
1334.00	7037.99
1335.00	7411.70
1336.00	6658.04
1337.00	5232.66
1338.00	3696.49
1339.00	2405.29
1340.00	1481.56
1341.00	1022.81
1342.00	787.98
1343.00	731.03
1344.00	676.41
1345.00	663.15
1346.00	623.36
1347.00	624.92
1348.00	617.90
1349.00	638.97
1350.00	624.92
1351.00	672.51
1352.00	655.35
1353.00	711.52
1354.00	707.62
1355.00	745.07
1356.00	768.48
1357.00	855.08
1358.00	1458.93
1359.00	3485.84
1360.00	7697.24
1361.00	14262.44
1362.00	20499.97
1363.00	23992.05
1364.00	22823.34
1365.00	18899.05
1366.00	13584.47
1367.00	8890.13
1368.00	5152.30
1369.00	2980.28
1370.00	1853.70
1371.00	1440.99
1372.00	2148.61
1373.00	5479.97
1374.00	12772.30
1375.00	24148.87
1376.00	35482.52
1377.00	42040.70
1378.00	40921.15
1379.00	34327.08
1380.00	24940.75
1381.00	16088.06
1382.00	9000.92
1383.00	4848.81
1384.00	2679.13
1385.00	1671.92
1386.00	1189.77
1387.00	1001.75
1388.00	873.02
1389.00	873.02
1390.00	823.09
1391.00	820.75
1392.00	768.48
1393.00	811.39
1394.00	880.04
1395.00	1086.01
1396.00	1352.83
1397.00	1659.44
1398.00	1845.12
1399.00	1870.87
1400.00	1792.85
1401.00	1724.97
1402.00	2250.82
1403.00	5725.73
1404.00	14901.41
1405.00	30712.51
1406.00	46561.84
1407.00	57091.13
1408.00	58895.68
1409.00	54629.66
1410.00	44894.60
1411.00	31796.96
1412.00	19083.17
1413.00	10093.95
1414.00	5352.81
1415.00	3084.05
1416.00	2509.83
1417.00	3611.45
1418.00	6563.64
1419.00	11124.57
1420.00	15357.03
1421.00	17377.70
1422.00	16294.81
1423.00	13341.83
1424.00	9713.22
1425.00	6386.54
1426.00	3784.65
1427.00	2232.87
1428.00	1456.59
1429.00	1072.75
1430.00	937.77
1431.00	857.42
1432.00	824.65
1433.00	770.04
1434.00	752.09
1435.00	713.86
1436.00	683.44
1437.00	657.69
1438.00	643.65
1439.00	621.02
1440.00	605.42
1441.00	609.32
1442.00	628.82
1443.00	637.41
1444.00	648.33
1445.00	614.78
1446.00	585.91
1447.00	575.77
1448.00	619.46
1449.00	629.60
1450.00	693.58
1451.00	1015.79
1452.00	1968.39
1453.00	3747.20
1454.00	6349.09
1455.00	8829.28
1456.00	10254.67
1457.00	9944.16
1458.00	8483.66
1459.00	6408.39
1460.00	4351.84
1461.00	2658.85
1462.00	1607.17
1463.00	1086.01
1464.00	824.65
1465.00	685.78
1466.00	637.41
1467.00	632.72
1468.00	618.68
1469.00	624.92
1470.00	637.41
1471.00	655.35
1472.00	643.65
1473.00	625.70
1474.00	619.46
1475.00	626.48
1476.00	631.16
1477.00	634.29
1478.00	656.91
1479.00	671.73
1480.00	702.94
1481.00	724.01
1482.00	784.08
1483.00	1166.37
1484.00	3097.31
1485.00	7687.10
1486.00	15825.92
1487.00	25600.78
1488.00	33183.34
1489.00	35176.69
1490.00	31551.98
1491.00	24858.05
1492.00	17316.06
1493.00	10686.11
1494.00	5863.04
1495.00	3210.43
1496.00	1879.45
1497.00	1211.62
1498.00	896.43
1499.00	748.97
1500.00	685.78
1501.00	670.95
1502.00	656.13
1503.00	665.49
1504.00	635.07
1505.00	630.38
1506.00	645.21
1507.00	688.90
1508.00	731.03
1509.00	977.56
1510.00	1768.66
1511.00	3324.34
1512.00	5518.98
1513.00	7516.24
1514.00	8638.92
1515.00	8365.85
1516.00	7187.79
1517.00	5449.55
1518.00	3833.02
1519.00	2460.68
1520.00	1610.29
1521.00	1093.03
1522.00	868.34
1523.00	739.61
1524.00	693.58
1525.00	659.25
1526.00	700.60
1527.00	773.94
1528.00	1022.81
1529.00	2039.39
1530.00	4681.07
1531.00	9444.06
1532.00	15865.71
1533.00	21316.82
1534.00	23587.14
1535.00	21936.28
1536.00	17922.26
1537.00	13043.03
1538.00	8490.68
1539.00	4939.31
1540.00	2821.91
1541.00	1724.97
1542.00	1218.64
1543.00	967.42
1544.00	795.00
1545.00	736.49
1546.00	715.42
1547.00	765.36
1548.00	734.15
1549.00	741.95
1550.00	677.98
1551.00	675.63
1552.00	666.27
1553.00	697.48
1554.00	728.69
1555.00	770.82
1556.00	777.84
1557.00	765.36
1558.00	793.44
1559.00	839.47
1560.00	1000.97
1561.00	1687.53
1562.00	4606.17
1563.00	10981.79
1564.00	21666.34
1565.00	33424.41
1566.00	42045.38
1567.00	43609.64
1568.00	39042.48
1569.00	30698.47
1570.00	21526.69
1571.00	13344.17
1572.00	7560.71
1573.00	4411.91
1574.00	3900.11
1575.00	7649.65
1576.00	17233.36
1577.00	32808.07
1578.00	47582.31
1579.00	57080.20
1580.00	58291.04
1581.00	54234.89
1582.00	45070.14
1583.00	32691.04
1584.00	20151.23
1585.00	10937.32
1586.00	5787.36
1587.00	3161.28
1588.00	1939.52
1589.00	1319.28
1590.00	1031.40
1591.00	895.64
1592.00	800.46
1593.00	733.37
1594.00	715.42
1595.00	699.04
1596.00	688.12
1597.00	658.47
1598.00	624.14
1599.00	642.87
1600.00	603.86
1601.00	598.40
1602.00	579.67
1603.00	605.42
1604.00	583.57
1605.00	557.05
1606.00	568.75
1607.00	591.38
1608.00	604.64
1609.00	567.19
1610.00	585.91
1611.00	585.91
1612.00	579.67
1613.00	564.07
1614.00	552.37
1615.00	576.55
1616.00	573.43
1617.00	582.79
1618.00	589.81
1619.00	602.30
1620.00	603.86
1621.00	589.03
1622.00	569.53
1623.00	555.49
1624.00	567.19
1625.00	565.63
1626.00	574.21
1627.00	582.01
1628.00	585.13
1629.00	589.03
1630.00	579.67
1631.00	577.33
1632.00	586.69
1633.00	593.72
1634.00	617.12
1635.00	617.12
1636.00	627.26
1637.00	635.85
1638.00	628.82
1639.00	622.58
1640.00	629.60
1641.00	678.76
1642.00	679.54
1643.00	674.07
1644.00	757.55
1645.00	1297.44
1646.00	3428.88
1647.00	8081.09
1648.00	16008.48
1649.00	25307.43
1650.00	32587.28
1651.00	34788.94
1652.00	31946.75
1653.00	25975.27
1654.00	18885.78
1655.00	12170.79
1656.00	7029.41
1657.00	3911.04
1658.00	2272.66
1659.00	1431.63
1660.00	1011.11
1661.00	809.83
1662.00	739.61
1663.00	870.68
1664.00	1448.79
1665.00	2866.38
1666.00	5297.41
1667.00	8425.15
1668.00	11140.95
1669.00	12241.00
1670.00	11555.22
1671.00	9689.04
1672.00	7390.63
1673.00	5083.64
1674.00	3155.04
1675.00	1903.64
1676.00	1209.28
1677.00	844.93
1678.00	698.26
1679.00	629.60
1680.00	603.08
1681.00	546.12
1682.00	511.80
1683.00	497.75
1684.00	507.12
1685.00	532.86
1686.00	530.52
1687.00	520.38
1688.00	501.65
1689.00	499.31
1690.00	527.40
1691.00	539.10
1692.00	546.12
1693.00	505.56
1694.00	469.67
1695.00	478.25
1696.00	488.39
1697.00	513.36
1698.00	516.48
1699.00	558.61
1700.00	560.17
1701.00	576.55
1702.00	571.87
1703.00	616.34
1704.00	616.34
1705.00	617.12
1706.00	601.52
1707.00	613.22
1708.00	631.94
1709.00	869.90
1710.00	1870.87
1711.00	4090.48
1712.00	7754.98
1713.00	12208.23
1714.00	15773.65
1715.00	17110.10
1716.00	16025.65
1717.00	13402.69
1718.00	10171.97
1719.00	6821.88
1720.00	4183.32
1721.00	2427.92
1722.00	1533.83
1723.00	1086.79
1724.00	844.93
1725.00	713.86
1726.00	623.36
1727.00	566.41
1728.00	528.18
1729.00	500.87
1730.00	524.28
1731.00	527.40
1732.00	518.82
1733.00	505.56
1734.00	505.56
1735.00	511.02
1736.00	516.48
1737.00	504.00
1738.00	475.91
1739.00	459.53
1740.00	471.23
1741.00	486.83
1742.00	503.22
1743.00	495.41
1744.00	487.61
1745.00	493.85
1746.00	484.49
1747.00	541.44
1748.00	568.75
1749.00	573.43
1750.00	549.25
1751.00	548.47
1752.00	592.16
1753.00	592.94
1754.00	589.03
1755.00	585.91
1756.00	592.94
1757.00	582.79
1758.00	580.45
1759.00	583.57
1760.00	584.35
1761.00	591.38
1762.00	621.02
1763.00	705.28
1764.00	848.83
1765.00	1555.68
1766.00	3780.75
1767.00	8155.99
1768.00	15063.69
1769.00	22686.81
1770.00	28685.61
1771.00	30189.79
1772.00	27884.36
1773.00	22708.66
1774.00	16808.95
1775.00	10974.77
1776.00	6575.34
1777.00	3777.62
1778.00	2255.50
1779.00	1432.41
1780.00	1045.44
1781.00	819.19
1782.00	724.79
1783.00	705.28
1784.00	670.17
1785.00	645.21
1786.00	612.44
1787.00	614.78
1788.00	596.84
1789.00	567.19
1790.00	594.50
1791.00	619.46
1792.00	809.83
1793.00	1582.20
1794.00	3527.19
1795.00	6976.36
1796.00	11624.66
1797.00	15983.52
1798.00	18438.74
1799.00	18210.15
1800.00	15965.57
1801.00	12546.83
1802.00	8976.73
1803.00	5727.29
1804.00	3475.70
1805.00	2008.18
1806.00	1290.42
1807.00	920.61
1808.00	744.29
1809.00	611.66
1810.00	572.65
1811.00	519.60
1812.00	536.76
1813.00	511.80
1814.00	548.47
1815.00	519.60
1816.00	520.38
1817.00	511.02
1818.00	535.20
1819.00	562.51
1820.00	571.87
1821.00	592.16
1822.00	611.66
1823.00	680.32
1824.00	699.04
1825.00	714.64
1826.00	651.45
1827.00	623.36
1828.00	586.69
1829.00	564.85
1830.00	526.62
1831.00	489.95
1832.00	455.62
1833.00	460.31
1834.00	461.87
1835.00	479.81
1836.00	492.29
1837.00	500.87
1838.00	490.73
1839.00	461.87
1840.00	440.80
1841.00	430.66
1842.00	449.38
1843.00	455.62
1844.00	452.50
1845.00	424.42
1846.00	422.86
1847.00	437.68
1848.00	456.40
1849.00	443.92
1850.00	426.76
1851.00	410.37
1852.00	415.84
1853.00	439.24
1854.00	431.44
1855.00	405.69
1856.00	403.35
1857.00	420.52
1858.00	424.42
1859.00	415.84
1860.00	416.62
1861.00	419.74
1862.00	447.04
1863.00	460.31
1864.00	470.45
1865.00	462.65
1866.00	435.34
1867.00	444.70
1868.00	414.27
1869.00	411.15
1870.00	421.30
1871.00	425.20
1872.00	447.04
1873.00	436.90
1874.00	447.82
1875.00	430.66
1876.00	413.49
1877.00	423.64
1878.00	428.32
1879.00	445.48
1880.00	438.46
1881.00	437.68
1882.00	437.68
1883.00	456.40
1884.00	445.48
1885.00	452.50
1886.00	416.62
1887.00	454.84
1888.00	447.04
1889.00	480.59
1890.00	454.84
1891.00	453.28
1892.00	436.12
1893.00	447.04
1894.00	461.09
1895.00	450.94
1896.00	448.60
1897.00	441.58
1898.00	454.06
1899.00	455.62
1900.00	441.58
1901.00	426.76
1902.00	418.96
1903.00	436.12
1904.00	466.55
1905.00	498.53
1906.00	512.58
1907.00	527.40
1908.00	570.31
1909.00	616.34
1910.00	637.41
1911.00	611.66
1912.00	596.84
1913.00	557.05
1914.00	522.72
1915.00	479.03
1916.00	463.43
1917.00	482.15
1918.00	467.33
1919.00	471.23
1920.00	461.09
1921.00	493.07
1922.00	498.53
1923.00	496.19
1924.00	486.05
1925.00	482.15
1926.00	458.75
1927.00	456.40
1928.00	461.09
1929.00	476.69
1930.00	494.63
1931.00	487.61
1932.00	490.73
1933.00	461.09
1934.00	448.60
1935.00	437.68
1936.00	463.43
1937.00	469.67
1938.00	472.79
1939.00	458.74
1940.00	464.21
1941.00	484.49
1942.00	493.07
1943.00	514.14
1944.00	510.24
1945.00	527.40
1946.00	600.74
1947.00	964.30
1948.00	2069.03
1949.00	4030.40
1950.00	7085.58
1951.00	10534.75
1952.00	13409.71
1953.00	14465.29
1954.00	13670.29
1955.00	11724.52
1956.00	9279.44
1957.00	6816.42
1958.00	4653.77
1959.00	3091.85
1960.00	2043.29
1961.00	1405.88
1962.00	1014.23
1963.00	815.29
1964.00	691.24
1965.00	598.40
1966.00	532.86
1967.00	481.37
1968.00	516.48
1969.00	534.42
1970.00	530.52
1971.00	514.92
1972.00	504.78
1973.00	547.69
1974.00	597.62
1975.00	660.03
1976.00	763.79
1977.00	900.33
1978.00	1089.91
1979.00	1203.04
1980.00	1270.13
1981.00	1217.86
1982.00	1133.60
1983.00	990.83
1984.00	857.42
1985.00	705.28
1986.00	616.34
1987.00	549.25
1988.00	509.46
1989.00	454.06
1990.00	422.86
1991.00	426.76
1992.00	461.87
1993.00	459.53
1994.00	464.21
1995.00	445.48
1996.00	453.28
1997.00	477.47
1998.00	507.12
1999.00	529.74
2000.00	511.80
2001.00	507.90
2002.00	523.50
2003.00	520.38
2004.00	495.41
2005.00	481.37
2006.00	503.22
2007.00	485.27
2008.00	460.31
2009.00	458.75
2010.00	509.46
2011.00	539.10
2012.00	529.74
2013.00	531.30
2014.00	517.26
2015.00	534.42
2016.00	545.34
2017.00	553.15
2018.00	592.94
2019.00	638.97
2020.00	773.16
2021.00	962.74
2022.00	1173.39
2023.00	1423.05
2024.00	1942.64
2025.00	3480.38
2026.00	6700.95
2027.00	11822.05
2028.00	18615.84
2029.00	25068.70
2030.00	29438.48
2031.00	30118.79
2032.00	28028.70
2033.00	23958.50
2034.00	18939.62
2035.00	13898.10
2036.00	9524.42
2037.00	6306.96
2038.00	3942.24
2039.00	2447.42
2040.00	1550.21
2041.00	1136.72
2042.00	912.03
2043.00	805.14
2044.00	685.00
2045.00	676.41
2046.00	661.59
2047.00	636.63
>>>>>End Processed Spectral Data<<<<<
