SpectraSuite Data File
++++++++++++++++++++++++++++++++++++
Date: Thu Nov 16 13:55:13 EST 2017
User: cheriyan
Dark Spectrum Present: No
Reference Spectrum Present: No
Number of Sampled Component Spectra: 1
Spectrometers: USB2+H05261
Integration Time (usec): 100000 (USB2+H05261)
Spectra Averaged: 1 (USB2+H05261)
Boxcar Smoothing: 1 (USB2+H05261)
Correct for Electrical Dark: No (USB2+H05261)
Strobe/Lamp Enabled: No (USB2+H05261)
Correct for Detector Non-linearity: No (USB2+H05261)
Correct for Stray Light: No (USB2+H05261)
Number of Pixels in Processed Spectrum: 2048
>>>>>Begin Processed Spectral Data<<<<<
0.00	353.42
1.00	353.42
2.00	304.27
3.00	269.16
4.00	216.89
5.00	220.01
6.00	227.03
7.00	242.64
8.00	248.88
9.00	244.20
10.00	241.08
11.00	227.81
12.00	217.67
13.00	209.87
14.00	223.91
15.00	237.17
16.00	230.93
17.00	244.20
18.00	252.00
19.00	275.40
20.00	294.91
21.00	288.67
22.00	287.89
23.00	282.42
24.00	310.51
25.00	330.02
26.00	339.38
27.00	364.34
28.00	383.07
29.00	404.91
30.00	386.19
31.00	377.61
32.00	385.41
33.00	386.97
34.00	402.57
35.00	366.68
36.00	386.19
37.00	407.25
38.00	443.14
39.00	424.42
40.00	390.09
41.00	390.87
42.00	401.01
43.00	400.23
44.00	397.89
45.00	397.11
46.00	432.22
47.00	457.18
48.00	468.89
49.00	435.34
50.00	405.69
51.00	404.13
52.00	426.76
53.00	422.08
54.00	410.37
55.00	408.03
56.00	422.08
57.00	428.32
58.00	421.30
59.00	408.03
60.00	387.75
61.00	371.36
62.00	379.95
63.00	404.91
64.00	437.68
65.00	433.00
66.00	412.71
67.00	393.21
68.00	368.24
69.00	395.55
70.00	410.37
71.00	429.88
72.00	391.65
73.00	390.87
74.00	395.55
75.00	401.01
76.00	376.05
77.00	378.39
78.00	388.53
79.00	409.59
80.00	403.35
81.00	410.37
82.00	392.43
83.00	390.87
84.00	393.99
85.00	411.93
86.00	411.15
87.00	409.59
88.00	410.37
89.00	404.91
90.00	401.01
91.00	400.23
92.00	392.43
93.00	365.12
94.00	342.50
95.00	340.94
96.00	362.00
97.00	369.80
98.00	397.89
99.00	407.25
100.00	410.37
101.00	371.36
102.00	370.58
103.00	376.05
104.00	409.59
105.00	419.74
106.00	428.32
107.00	421.30
108.00	418.18
109.00	436.90
110.00	436.12
111.00	421.30
112.00	392.43
113.00	404.91
114.00	381.51
115.00	369.80
116.00	355.76
117.00	382.29
118.00	406.47
119.00	423.64
120.00	412.71
121.00	390.09
122.00	382.29
123.00	401.01
124.00	405.69
125.00	411.15
126.00	402.57
127.00	408.03
128.00	383.07
129.00	392.43
130.00	366.68
131.00	386.97
132.00	372.93
133.00	415.06
134.00	418.96
135.00	453.28
136.00	445.48
137.00	419.74
138.00	391.65
139.00	389.31
140.00	402.57
141.00	397.89
142.00	414.27
143.00	421.30
144.00	452.50
145.00	478.25
146.00	518.04
147.00	511.02
148.00	493.85
149.00	447.04
150.00	456.40
151.00	425.98
152.00	430.66
153.00	404.13
154.00	442.36
155.00	420.52
156.00	422.86
157.00	387.75
158.00	408.81
159.00	403.35
160.00	408.81
161.00	402.57
162.00	407.25
163.00	377.61
164.00	364.34
165.00	354.20
166.00	371.36
167.00	375.27
168.00	365.12
169.00	384.63
170.00	400.23
171.00	419.74
172.00	414.27
173.00	418.18
174.00	422.86
175.00	419.74
176.00	440.02
177.00	429.10
178.00	402.57
179.00	391.65
180.00	399.45
181.00	418.18
182.00	410.37
183.00	429.10
184.00	447.82
185.00	443.14
186.00	439.24
187.00	441.58
188.00	470.45
189.00	454.84
190.00	429.10
191.00	397.89
192.00	399.45
193.00	427.54
194.00	488.39
195.00	526.62
196.00	564.85
197.00	549.25
198.00	528.96
199.00	481.37
200.00	447.04
201.00	436.90
202.00	420.52
203.00	411.93
204.00	404.91
205.00	397.89
206.00	408.03
207.00	420.52
208.00	419.74
209.00	403.35
210.00	393.21
211.00	422.08
212.00	412.71
213.00	411.15
214.00	393.21
215.00	408.03
216.00	410.37
217.00	416.62
218.00	430.66
219.00	426.76
220.00	440.02
221.00	428.32
222.00	439.24
223.00	431.44
224.00	424.42
225.00	418.96
226.00	423.64
227.00	424.42
228.00	420.52
229.00	427.54
230.00	424.42
231.00	403.35
232.00	375.27
233.00	387.75
234.00	415.06
235.00	401.01
236.00	410.37
237.00	408.81
238.00	461.09
239.00	454.84
240.00	460.31
241.00	449.38
242.00	462.65
243.00	436.12
244.00	405.69
245.00	369.02
246.00	390.87
247.00	401.01
248.00	407.25
249.00	410.37
250.00	405.69
251.00	395.55
252.00	371.36
253.00	400.23
254.00	440.80
255.00	483.71
256.00	461.09
257.00	440.02
258.00	429.10
259.00	425.98
260.00	437.68
261.00	416.62
262.00	442.36
263.00	437.68
264.00	469.67
265.00	433.78
266.00	440.80
267.00	462.65
268.00	524.28
269.00	548.47
270.00	535.98
271.00	538.32
272.00	581.23
273.00	592.94
274.00	614.78
275.00	598.40
276.00	599.18
277.00	557.05
278.00	518.04
279.00	504.78
280.00	495.41
281.00	464.21
282.00	396.33
283.00	374.49
284.00	386.97
285.00	404.91
286.00	397.11
287.00	401.01
288.00	417.40
289.00	436.90
290.00	398.67
291.00	379.17
292.00	364.34
293.00	396.33
294.00	427.54
295.00	450.16
296.00	451.72
297.00	447.82
298.00	415.84
299.00	415.06
300.00	396.33
301.00	398.67
302.00	382.29
303.00	382.29
304.00	386.97
305.00	408.03
306.00	457.18
307.00	511.80
308.00	579.67
309.00	622.58
310.00	606.20
311.00	600.74
312.00	556.27
313.00	550.81
314.00	489.17
315.00	442.36
316.00	420.52
317.00	404.91
318.00	427.54
319.00	414.27
320.00	430.66
321.00	430.66
322.00	422.08
323.00	409.59
324.00	390.09
325.00	407.25
326.00	412.71
327.00	451.72
328.00	436.90
329.00	444.70
330.00	409.59
331.00	410.37
332.00	418.18
333.00	401.01
334.00	412.71
335.00	390.87
336.00	385.41
337.00	391.65
338.00	397.89
339.00	399.45
340.00	386.97
341.00	409.59
342.00	438.46
343.00	467.33
344.00	475.13
345.00	500.09
346.00	562.51
347.00	603.08
348.00	675.63
349.00	701.38
350.00	704.50
351.00	653.79
352.00	579.67
353.00	551.59
354.00	544.56
355.00	557.05
356.00	525.06
357.00	493.07
358.00	466.55
359.00	448.60
360.00	438.46
361.00	436.90
362.00	435.34
363.00	433.00
364.00	425.98
365.00	463.43
366.00	456.40
367.00	465.77
368.00	438.46
369.00	438.46
370.00	413.49
371.00	429.88
372.00	425.20
373.00	456.40
374.00	442.36
375.00	443.14
376.00	422.08
377.00	423.64
378.00	434.56
379.00	422.86
380.00	398.67
381.00	411.93
382.00	418.18
383.00	418.96
384.00	414.27
385.00	417.40
386.00	448.60
387.00	448.60
388.00	452.50
389.00	447.82
390.00	417.40
391.00	405.69
392.00	372.15
393.00	375.27
394.00	391.65
395.00	414.27
396.00	462.65
397.00	470.45
398.00	456.40
399.00	409.59
400.00	414.27
401.00	419.74
402.00	433.78
403.00	425.98
404.00	434.56
405.00	450.94
406.00	422.08
407.00	404.91
408.00	368.24
409.00	376.83
410.00	406.47
411.00	414.27
412.00	418.18
413.00	394.77
414.00	404.13
415.00	415.84
416.00	406.47
417.00	395.55
418.00	390.87
419.00	388.53
420.00	410.37
421.00	412.71
422.00	411.93
423.00	398.67
424.00	404.13
425.00	447.82
426.00	458.75
427.00	487.61
428.00	447.82
429.00	451.72
430.00	425.98
431.00	413.49
432.00	414.27
433.00	386.97
434.00	438.46
435.00	418.96
436.00	455.62
437.00	428.32
438.00	436.12
439.00	431.44
440.00	454.06
441.00	455.62
442.00	443.14
443.00	446.26
444.00	441.58
445.00	449.38
446.00	413.49
447.00	431.44
448.00	428.32
449.00	424.42
450.00	408.03
451.00	390.87
452.00	423.64
453.00	436.12
454.00	467.33
455.00	464.99
456.00	461.87
457.00	426.76
458.00	411.93
459.00	372.15
460.00	396.33
461.00	375.27
462.00	398.67
463.00	400.23
464.00	433.00
465.00	433.00
466.00	431.44
467.00	427.54
468.00	448.60
469.00	429.88
470.00	425.98
471.00	417.40
472.00	404.13
473.00	410.37
474.00	414.27
475.00	408.81
476.00	424.42
477.00	414.27
478.00	426.76
479.00	403.35
480.00	411.15
481.00	429.88
482.00	432.22
483.00	434.56
484.00	401.01
485.00	382.29
486.00	378.39
487.00	388.53
488.00	421.30
489.00	433.00
490.00	456.40
491.00	425.98
492.00	415.06
493.00	405.69
494.00	448.60
495.00	450.94
496.00	452.50
497.00	443.92
498.00	430.66
499.00	426.76
500.00	414.27
501.00	430.66
502.00	424.42
503.00	441.58
504.00	431.44
505.00	457.18
506.00	437.68
507.00	447.82
508.00	442.36
509.00	437.68
510.00	432.22
511.00	415.84
512.00	411.15
513.00	402.57
514.00	411.15
515.00	429.88
516.00	450.16
517.00	470.45
518.00	461.87
519.00	457.18
520.00	449.38
521.00	441.58
522.00	476.69
523.00	459.53
524.00	457.18
525.00	411.93
526.00	418.96
527.00	417.40
528.00	412.71
529.00	393.99
530.00	406.47
531.00	430.66
532.00	443.14
533.00	460.31
534.00	456.40
535.00	460.31
536.00	422.86
537.00	434.56
538.00	445.48
539.00	458.74
540.00	430.66
541.00	404.13
542.00	391.65
543.00	383.07
544.00	401.01
545.00	417.40
546.00	446.26
547.00	467.33
548.00	500.09
549.00	504.00
550.00	504.00
551.00	486.05
552.00	454.06
553.00	414.27
554.00	414.27
555.00	428.32
556.00	459.53
557.00	459.53
558.00	433.00
559.00	399.45
560.00	380.73
561.00	401.01
562.00	417.40
563.00	421.30
564.00	408.03
565.00	391.65
566.00	421.30
567.00	454.84
568.00	470.45
569.00	425.98
570.00	411.93
571.00	411.93
572.00	417.40
573.00	429.10
574.00	441.58
575.00	440.02
576.00	433.78
577.00	429.10
578.00	457.18
579.00	440.02
580.00	444.70
581.00	419.74
582.00	424.42
583.00	413.49
584.00	429.88
585.00	461.87
586.00	443.92
587.00	421.30
588.00	388.53
589.00	401.01
590.00	410.37
591.00	415.06
592.00	429.88
593.00	421.30
594.00	403.35
595.00	386.97
596.00	398.67
597.00	407.25
598.00	409.59
599.00	419.74
600.00	447.04
601.00	443.14
602.00	436.90
603.00	395.55
604.00	397.89
605.00	397.89
606.00	443.92
607.00	451.72
608.00	448.60
609.00	426.76
610.00	426.76
611.00	400.23
612.00	382.29
613.00	386.97
614.00	393.99
615.00	395.55
616.00	376.83
617.00	385.41
618.00	411.15
619.00	419.74
620.00	436.90
621.00	425.20
622.00	430.66
623.00	420.52
624.00	422.86
625.00	428.32
626.00	443.92
627.00	443.14
628.00	459.53
629.00	463.43
630.00	468.11
631.00	442.36
632.00	425.98
633.00	416.62
634.00	436.90
635.00	452.50
636.00	468.11
637.00	463.43
638.00	452.50
639.00	469.67
640.00	457.18
641.00	455.62
642.00	423.64
643.00	464.21
644.00	457.96
645.00	464.21
646.00	434.56
647.00	435.34
648.00	443.14
649.00	454.84
650.00	460.31
651.00	459.53
652.00	433.78
653.00	425.98
654.00	467.33
655.00	472.01
656.00	497.75
657.00	433.00
658.00	445.48
659.00	416.62
660.00	437.68
661.00	426.76
662.00	459.53
663.00	461.87
664.00	443.14
665.00	431.44
666.00	431.44
667.00	447.82
668.00	451.72
669.00	458.74
670.00	459.53
671.00	425.20
672.00	418.96
673.00	411.15
674.00	423.64
675.00	413.49
676.00	412.71
677.00	411.15
678.00	432.22
679.00	471.23
680.00	467.33
681.00	468.89
682.00	437.68
683.00	459.53
684.00	429.88
685.00	439.24
686.00	437.68
687.00	433.00
688.00	408.03
689.00	408.03
690.00	411.93
691.00	424.42
692.00	425.20
693.00	452.50
694.00	456.40
695.00	447.82
696.00	448.60
697.00	450.16
698.00	454.06
699.00	433.78
700.00	451.72
701.00	426.76
702.00	415.06
703.00	369.80
704.00	388.53
705.00	386.97
706.00	422.86
707.00	422.86
708.00	442.36
709.00	433.00
710.00	436.12
711.00	429.88
712.00	433.78
713.00	436.90
714.00	427.54
715.00	436.90
716.00	422.08
717.00	395.55
718.00	435.34
719.00	440.02
720.00	482.93
721.00	422.08
722.00	447.04
723.00	443.92
724.00	430.66
725.00	412.71
726.00	398.67
727.00	426.76
728.00	412.71
729.00	447.04
730.00	443.14
731.00	468.89
732.00	477.47
733.00	503.22
734.00	499.31
735.00	493.07
736.00	500.09
737.00	514.14
738.00	511.80
739.00	486.05
740.00	471.23
741.00	468.89
742.00	447.04
743.00	471.23
744.00	477.47
745.00	496.97
746.00	467.33
747.00	430.66
748.00	425.20
749.00	406.47
750.00	429.88
751.00	416.62
752.00	434.56
753.00	433.00
754.00	458.75
755.00	456.40
756.00	450.94
757.00	423.64
758.00	442.36
759.00	443.14
760.00	474.35
761.00	472.79
762.00	472.01
763.00	444.70
764.00	446.26
765.00	454.84
766.00	462.65
767.00	452.50
768.00	440.80
769.00	448.60
770.00	443.14
771.00	456.40
772.00	468.11
773.00	486.05
774.00	475.91
775.00	445.48
776.00	419.74
777.00	416.62
778.00	468.89
779.00	497.75
780.00	534.42
781.00	565.63
782.00	587.47
783.00	673.29
784.00	634.29
785.00	605.42
786.00	482.15
787.00	475.91
788.00	456.40
789.00	440.02
790.00	425.20
791.00	415.84
792.00	418.18
793.00	415.84
794.00	442.36
795.00	443.14
796.00	436.90
797.00	422.08
798.00	442.36
799.00	443.92
800.00	431.44
801.00	450.16
802.00	469.67
803.00	475.91
804.00	448.60
805.00	430.66
806.00	447.82
807.00	456.40
808.00	490.73
809.00	490.73
810.00	487.61
811.00	462.65
812.00	452.50
813.00	449.38
814.00	415.06
815.00	414.27
816.00	411.93
817.00	420.52
818.00	429.88
819.00	425.20
820.00	449.38
821.00	471.23
822.00	494.63
823.00	507.12
824.00	493.07
825.00	488.39
826.00	466.55
827.00	450.94
828.00	443.14
829.00	428.32
830.00	428.32
831.00	449.38
832.00	466.55
833.00	465.77
834.00	454.06
835.00	469.67
836.00	505.56
837.00	508.68
838.00	468.89
839.00	442.36
840.00	450.94
841.00	465.77
842.00	464.21
843.00	440.80
844.00	464.99
845.00	468.89
846.00	484.49
847.00	457.18
848.00	423.64
849.00	422.08
850.00	421.30
851.00	443.92
852.00	435.34
853.00	433.00
854.00	422.86
855.00	417.40
856.00	440.02
857.00	462.65
858.00	459.53
859.00	437.68
860.00	432.22
861.00	436.90
862.00	434.56
863.00	433.00
864.00	445.48
865.00	438.46
866.00	431.44
867.00	425.98
868.00	424.42
869.00	423.64
870.00	393.21
871.00	422.86
872.00	411.15
873.00	432.22
874.00	418.96
875.00	430.66
876.00	439.24
877.00	434.56
878.00	471.23
879.00	476.69
880.00	467.33
881.00	428.32
882.00	423.64
883.00	457.18
884.00	471.23
885.00	478.25
886.00	468.11
887.00	468.89
888.00	438.46
889.00	441.58
890.00	451.72
891.00	472.79
892.00	482.15
893.00	443.14
894.00	438.46
895.00	422.08
896.00	473.57
897.00	476.69
898.00	457.96
899.00	445.48
900.00	454.84
901.00	479.03
902.00	489.17
903.00	543.00
904.00	645.21
905.00	756.77
906.00	797.34
907.00	802.80
908.00	747.41
909.00	1023.59
910.00	1045.44
911.00	1114.88
912.00	887.84
913.00	893.30
914.00	841.03
915.00	748.97
916.00	653.01
917.00	563.29
918.00	519.60
919.00	486.05
920.00	470.45
921.00	442.36
922.00	442.36
923.00	455.62
924.00	462.65
925.00	448.60
926.00	429.10
927.00	430.66
928.00	456.40
929.00	471.23
930.00	475.91
931.00	468.89
932.00	461.09
933.00	461.09
934.00	454.84
935.00	476.69
936.00	482.93
937.00	477.47
938.00	445.48
939.00	450.94
940.00	467.33
941.00	492.29
942.00	500.09
943.00	648.33
944.00	1054.02
945.00	1905.20
946.00	2907.73
947.00	3655.14
948.00	3697.27
949.00	3176.11
950.00	2394.37
951.00	1639.16
952.00	1093.03
953.00	756.77
954.00	600.74
955.00	507.90
956.00	489.95
957.00	496.19
958.00	472.01
959.00	433.78
960.00	408.81
961.00	433.00
962.00	440.02
963.00	445.48
964.00	433.00
965.00	450.16
966.00	450.16
967.00	479.03
968.00	463.43
969.00	470.45
970.00	456.40
971.00	442.36
972.00	435.34
973.00	427.54
974.00	446.26
975.00	450.16
976.00	429.88
977.00	423.64
978.00	418.18
979.00	438.46
980.00	456.40
981.00	461.09
982.00	454.84
983.00	457.18
984.00	443.92
985.00	443.14
986.00	412.71
987.00	429.88
988.00	432.22
989.00	475.13
990.00	455.62
991.00	454.84
992.00	426.76
993.00	440.02
994.00	449.38
995.00	443.14
996.00	447.82
997.00	435.34
998.00	446.26
999.00	455.62
1000.00	463.43
1001.00	493.07
1002.00	481.37
1003.00	477.47
1004.00	452.50
1005.00	455.62
1006.00	439.24
1007.00	423.64
1008.00	421.30
1009.00	457.18
1010.00	488.39
1011.00	501.65
1012.00	472.01
1013.00	455.62
1014.00	436.90
1015.00	420.52
1016.00	404.91
1017.00	391.65
1018.00	405.69
1019.00	411.93
1020.00	419.74
1021.00	425.20
1022.00	420.52
1023.00	430.66
1024.00	424.42
1025.00	433.78
1026.00	461.09
1027.00	489.95
1028.00	492.29
1029.00	455.62
1030.00	444.70
1031.00	440.80
1032.00	452.50
1033.00	454.84
1034.00	415.84
1035.00	407.25
1036.00	387.75
1037.00	422.86
1038.00	395.55
1039.00	419.74
1040.00	445.48
1041.00	493.07
1042.00	509.46
1043.00	521.16
1044.00	526.62
1045.00	555.49
1046.00	538.32
1047.00	530.52
1048.00	481.37
1049.00	483.71
1050.00	476.69
1051.00	455.62
1052.00	418.96
1053.00	397.89
1054.00	407.25
1055.00	411.93
1056.00	420.52
1057.00	421.30
1058.00	433.78
1059.00	441.58
1060.00	423.64
1061.00	426.76
1062.00	411.15
1063.00	435.34
1064.00	429.88
1065.00	450.16
1066.00	449.38
1067.00	451.72
1068.00	444.70
1069.00	448.60
1070.00	447.82
1071.00	448.60
1072.00	444.70
1073.00	425.20
1074.00	406.47
1075.00	390.87
1076.00	411.15
1077.00	438.46
1078.00	447.82
1079.00	477.47
1080.00	468.89
1081.00	462.65
1082.00	436.12
1083.00	439.24
1084.00	424.42
1085.00	429.10
1086.00	449.38
1087.00	491.51
1088.00	475.91
1089.00	457.96
1090.00	423.64
1091.00	443.14
1092.00	452.50
1093.00	475.91
1094.00	451.72
1095.00	466.55
1096.00	453.28
1097.00	479.81
1098.00	484.49
1099.00	541.44
1100.00	559.39
1101.00	564.07
1102.00	564.85
1103.00	581.23
1104.00	569.53
1105.00	523.50
1106.00	495.41
1107.00	475.91
1108.00	496.97
1109.00	463.43
1110.00	477.47
1111.00	439.24
1112.00	426.76
1113.00	407.25
1114.00	408.03
1115.00	440.02
1116.00	441.58
1117.00	454.84
1118.00	454.06
1119.00	489.95
1120.00	529.74
1121.00	558.61
1122.00	564.85
1123.00	527.40
1124.00	528.18
1125.00	496.19
1126.00	475.13
1127.00	472.01
1128.00	466.55
1129.00	482.15
1130.00	461.87
1131.00	455.62
1132.00	483.71
1133.00	480.59
1134.00	493.07
1135.00	479.81
1136.00	498.53
1137.00	535.20
1138.00	550.03
1139.00	567.97
1140.00	548.47
1141.00	548.47
1142.00	507.12
1143.00	495.41
1144.00	469.67
1145.00	485.27
1146.00	475.13
1147.00	488.39
1148.00	484.49
1149.00	507.12
1150.00	517.26
1151.00	532.08
1152.00	528.96
1153.00	504.78
1154.00	496.19
1155.00	531.30
1156.00	641.31
1157.00	733.37
1158.00	740.39
1159.00	726.35
1160.00	639.75
1161.00	619.46
1162.00	572.65
1163.00	654.57
1164.00	817.63
1165.00	1100.83
1166.00	1457.37
1167.00	1685.97
1168.00	1717.95
1169.00	1526.03
1170.00	1278.71
1171.00	1022.81
1172.00	827.77
1173.00	688.90
1174.00	615.56
1175.00	577.33
1176.00	571.87
1177.00	585.13
1178.00	589.03
1179.00	575.77
1180.00	578.89
1181.00	592.16
1182.00	593.72
1183.00	628.82
1184.00	626.48
1185.00	657.69
1186.00	628.04
1187.00	643.65
1188.00	689.68
1189.00	743.51
1190.00	807.48
1191.00	839.47
1192.00	862.88
1193.00	897.21
1194.00	904.23
1195.00	911.25
1196.00	864.44
1197.00	839.47
1198.00	870.68
1199.00	997.07
1200.00	1185.09
1201.00	1380.14
1202.00	1490.92
1203.00	1487.80
1204.00	1369.21
1205.00	1249.85
1206.00	1156.22
1207.00	1117.22
1208.00	1096.93
1209.00	1118.00
1210.00	1156.22
1211.00	1220.20
1212.00	1331.76
1213.00	1491.70
1214.00	1709.37
1215.00	2003.50
1216.00	2514.52
1217.00	5785.80
1218.00	21055.46
1219.00	41830.83
1220.00	59753.10
1221.00	65535.00
1222.00	65535.00
1223.00	65535.00
1224.00	65535.00
1225.00	65346.98
1226.00	56250.09
1227.00	40580.21
1228.00	21951.10
1229.00	10749.30
1230.00	5511.18
1231.00	3156.60
1232.00	2225.07
1233.00	1827.18
1234.00	1702.35
1235.00	1653.20
1236.00	2168.12
1237.00	3815.07
1238.00	7126.15
1239.00	11556.00
1240.00	15201.78
1241.00	16294.81
1242.00	14580.76
1243.00	11247.83
1244.00	7705.82
1245.00	4784.06
1246.00	2849.99
1247.00	1817.04
1248.00	1293.54
1249.00	1005.65
1250.00	939.34
1251.00	976.00
1252.00	1093.81
1253.00	1176.51
1254.00	1263.11
1255.00	1269.35
1256.00	1234.24
1257.00	1128.14
1258.00	1029.06
1259.00	943.24
1260.00	905.01
1261.00	901.89
1262.00	887.84
1263.00	865.22
1264.00	802.80
1265.00	777.06
1266.00	734.15
1267.00	741.95
1268.00	764.57
1269.00	760.67
1270.00	758.33
1271.00	739.61
1272.00	791.10
1273.00	808.26
1274.00	861.32
1275.00	1201.48
1276.00	2902.26
1277.00	7121.47
1278.00	14586.22
1279.00	22867.03
1280.00	28630.99
1281.00	28712.91
1282.00	24435.97
1283.00	17781.83
1284.00	11581.75
1285.00	6687.69
1286.00	3670.74
1287.00	2088.54
1288.00	1341.91
1289.00	1010.33
1290.00	916.71
1291.00	887.06
1292.00	922.17
1293.00	922.95
1294.00	926.07
1295.00	1102.39
1296.00	1709.37
1297.00	2970.14
1298.00	4674.05
1299.00	6211.00
1300.00	6802.38
1301.00	6342.07
1302.00	5134.36
1303.00	3761.24
1304.00	2527.78
1305.00	1643.84
1306.00	1163.25
1307.00	910.47
1308.00	854.30
1309.00	810.61
1310.00	793.44
1311.00	709.96
1312.00	663.15
1313.00	640.53
1314.00	602.30
1315.00	582.79
1316.00	543.78
1317.00	551.59
1318.00	565.63
1319.00	565.63
1320.00	563.29
1321.00	541.44
1322.00	534.42
1323.00	546.12
1324.00	571.09
1325.00	605.42
1326.00	637.41
1327.00	625.70
1328.00	616.34
1329.00	645.21
1330.00	1005.65
1331.00	1962.93
1332.00	3559.95
1333.00	5419.12
1334.00	6919.40
1335.00	7340.70
1336.00	6713.44
1337.00	5292.73
1338.00	3771.38
1339.00	2444.30
1340.00	1550.21
1341.00	1051.68
1342.00	826.99
1343.00	695.92
1344.00	650.67
1345.00	616.34
1346.00	631.94
1347.00	629.60
1348.00	624.14
1349.00	628.04
1350.00	640.53
1351.00	638.97
1352.00	638.19
1353.00	665.49
1354.00	702.94
1355.00	759.89
1356.00	798.90
1357.00	926.85
1358.00	1490.14
1359.00	3554.49
1360.00	7834.55
1361.00	14212.51
1362.00	20406.35
1363.00	23761.12
1364.00	22831.15
1365.00	18911.53
1366.00	13642.20
1367.00	8893.26
1368.00	5153.86
1369.00	3001.35
1370.00	1913.00
1371.00	1508.87
1372.00	2188.40
1373.00	5516.64
1374.00	12756.70
1375.00	24185.54
1376.00	35510.61
1377.00	42100.00
1378.00	40967.96
1379.00	34367.65
1380.00	24980.54
1381.00	16064.66
1382.00	8947.09
1383.00	4846.47
1384.00	2687.72
1385.00	1686.75
1386.00	1186.65
1387.00	978.34
1388.00	862.88
1389.00	822.31
1390.00	803.58
1391.00	802.80
1392.00	809.05
1393.00	874.58
1394.00	959.62
1395.00	1108.63
1396.00	1334.11
1397.00	1574.40
1398.00	1760.86
1399.00	1820.16
1400.00	1792.07
1401.00	1689.87
1402.00	2193.08
1403.00	5660.98
1404.00	14850.70
1405.00	30541.65
1406.00	46337.15
1407.00	56908.57
1408.00	58787.24
1409.00	54379.23
1410.00	44617.63
1411.00	31491.91
1412.00	18924.01
1413.00	9933.23
1414.00	5239.68
1415.00	2995.11
1416.00	2440.40
1417.00	3591.16
1418.00	6638.54
1419.00	11157.33
1420.00	15380.44
1421.00	17366.77
1422.00	16304.95
1423.00	13379.28
1424.00	9655.49
1425.00	6386.54
1426.00	3758.90
1427.00	2274.22
1428.00	1470.64
1429.00	1077.43
1430.00	912.81
1431.00	804.36
1432.00	780.18
1433.00	766.14
1434.00	781.74
1435.00	752.87
1436.00	729.47
1437.00	699.04
1438.00	689.68
1439.00	641.31
1440.00	626.48
1441.00	628.04
1442.00	643.65
1443.00	616.34
1444.00	589.81
1445.00	585.91
1446.00	602.30
1447.00	626.48
1448.00	667.05
1449.00	688.90
1450.00	757.55
1451.00	999.41
1452.00	1902.86
1453.00	3620.81
1454.00	6221.92
1455.00	8685.73
1456.00	10091.61
1457.00	9779.54
1458.00	8415.01
1459.00	6404.49
1460.00	4428.29
1461.00	2716.58
1462.00	1655.54
1463.00	1121.90
1464.00	841.03
1465.00	699.82
1466.00	647.55
1467.00	628.04
1468.00	633.50
1469.00	624.92
1470.00	618.68
1471.00	619.46
1472.00	636.63
1473.00	629.60
1474.00	655.35
1475.00	650.67
1476.00	667.05
1477.00	656.13
1478.00	659.25
1479.00	680.32
1480.00	695.14
1481.00	724.79
1482.00	796.56
1483.00	1214.74
1484.00	3077.80
1485.00	7643.41
1486.00	15734.64
1487.00	25575.81
1488.00	33382.28
1489.00	35323.37
1490.00	31796.18
1491.00	24888.48
1492.00	17386.28
1493.00	10665.82
1494.00	5855.24
1495.00	3211.22
1496.00	1857.61
1497.00	1149.98
1498.00	863.66
1499.00	748.97
1500.00	724.79
1501.00	703.72
1502.00	693.58
1503.00	667.05
1504.00	634.29
1505.00	639.75
1506.00	685.00
1507.00	715.42
1508.00	759.89
1509.00	990.83
1510.00	1756.18
1511.00	3253.34
1512.00	5501.82
1513.00	7642.63
1514.00	8823.04
1515.00	8478.98
1516.00	7183.10
1517.00	5452.67
1518.00	3777.62
1519.00	2423.23
1520.00	1501.84
1521.00	1057.14
1522.00	815.29
1523.00	737.27
1524.00	702.94
1525.00	688.90
1526.00	733.37
1527.00	794.22
1528.00	1047.78
1529.00	2062.79
1530.00	4670.93
1531.00	9350.44
1532.00	15681.59
1533.00	21009.43
1534.00	23386.63
1535.00	21861.38
1536.00	18018.22
1537.00	13068.77
1538.00	8466.50
1539.00	4978.32
1540.00	2915.53
1541.00	1769.44
1542.00	1199.13
1543.00	950.26
1544.00	862.10
1545.00	776.28
1546.00	733.37
1547.00	713.08
1548.00	718.54
1549.00	699.04
1550.00	702.94
1551.00	680.32
1552.00	704.50
1553.00	711.52
1554.00	747.41
1555.00	781.74
1556.00	822.31
1557.00	821.53
1558.00	833.23
1559.00	844.93
1560.00	958.84
1561.00	1695.33
1562.00	4611.64
1563.00	11141.73
1564.00	21887.91
1565.00	33631.94
1566.00	41892.47
1567.00	43301.47
1568.00	38839.63
1569.00	30618.11
1570.00	21552.43
1571.00	13205.30
1572.00	7507.66
1573.00	4322.97
1574.00	3830.68
1575.00	7607.52
1576.00	17241.17
1577.00	32746.44
1578.00	47512.88
1579.00	56933.53
1580.00	58197.42
1581.00	54086.66
1582.00	44926.58
1583.00	32709.77
1584.00	20205.06
1585.00	11133.93
1586.00	5873.96
1587.00	3276.75
1588.00	1981.65
1589.00	1382.48
1590.00	1121.90
1591.00	944.80
1592.00	904.23
1593.00	831.67
1594.00	782.52
1595.00	702.94
1596.00	709.18
1597.00	716.20
1598.00	686.56
1599.00	624.92
1600.00	582.01
1601.00	592.94
1602.00	623.36
1603.00	625.70
1604.00	630.38
1605.00	611.66
1606.00	628.04
1607.00	614.00
1608.00	610.88
1609.00	590.60
1610.00	578.11
1611.00	571.09
1612.00	562.51
1613.00	585.13
1614.00	578.11
1615.00	564.85
1616.00	548.47
1617.00	550.03
1618.00	585.91
1619.00	570.31
1620.00	574.21
1621.00	528.18
1622.00	541.44
1623.00	543.00
1624.00	591.38
1625.00	596.06
1626.00	600.74
1627.00	580.45
1628.00	589.82
1629.00	577.33
1630.00	578.11
1631.00	548.47
1632.00	565.63
1633.00	585.13
1634.00	585.91
1635.00	561.73
1636.00	551.59
1637.00	571.87
1638.00	597.62
1639.00	599.96
1640.00	638.19
1641.00	653.01
1642.00	704.50
1643.00	723.23
1644.00	816.85
1645.00	1331.76
1646.00	3478.04
1647.00	8100.59
1648.00	16103.67
1649.00	25377.65
1650.00	32595.86
1651.00	34716.39
1652.00	31796.96
1653.00	25951.08
1654.00	18824.93
1655.00	12184.05
1656.00	6983.38
1657.00	3893.09
1658.00	2196.20
1659.00	1398.08
1660.00	1024.37
1661.00	899.55
1662.00	848.83
1663.00	932.31
1664.00	1469.08
1665.00	2889.78
1666.00	5297.41
1667.00	8393.94
1668.00	11046.55
1669.00	12240.22
1670.00	11534.94
1671.00	9753.79
1672.00	7371.91
1673.00	5109.39
1674.00	3114.47
1675.00	1881.79
1676.00	1166.37
1677.00	821.53
1678.00	631.16
1679.00	590.60
1680.00	557.05
1681.00	544.56
1682.00	514.92
1683.00	497.75
1684.00	509.46
1685.00	510.24
1686.00	510.24
1687.00	501.65
1688.00	503.22
1689.00	521.94
1690.00	522.72
1691.00	537.54
1692.00	553.93
1693.00	564.07
1694.00	542.22
1695.00	500.87
1696.00	477.47
1697.00	486.05
1698.00	489.95
1699.00	500.09
1700.00	499.31
1701.00	511.80
1702.00	535.20
1703.00	550.81
1704.00	589.82
1705.00	582.79
1706.00	588.25
1707.00	567.97
1708.00	621.80
1709.00	882.38
1710.00	1901.30
1711.00	4085.80
1712.00	7682.42
1713.00	12098.23
1714.00	15806.42
1715.00	17231.02
1716.00	16005.36
1717.00	13282.54
1718.00	9988.63
1719.00	6907.70
1720.00	4244.95
1721.00	2495.01
1722.00	1515.89
1723.00	1023.59
1724.00	788.76
1725.00	649.89
1726.00	585.91
1727.00	584.35
1728.00	568.75
1729.00	564.07
1730.00	556.27
1731.00	549.25
1732.00	535.20
1733.00	496.97
1734.00	467.33
1735.00	493.85
1736.00	539.88
1737.00	560.95
1738.00	520.38
1739.00	481.37
1740.00	473.57
1741.00	503.22
1742.00	508.68
1743.00	518.04
1744.00	490.73
1745.00	526.62
1746.00	539.88
1747.00	551.59
1748.00	540.66
1749.00	554.71
1750.00	582.01
1751.00	599.96
1752.00	582.01
1753.00	571.87
1754.00	567.97
1755.00	575.77
1756.00	592.94
1757.00	591.38
1758.00	597.62
1759.00	578.11
1760.00	572.65
1761.00	560.17
1762.00	610.88
1763.00	663.15
1764.00	814.51
1765.00	1520.57
1766.00	3737.84
1767.00	8133.36
1768.00	15009.08
1769.00	22756.25
1770.00	28830.72
1771.00	30581.44
1772.00	28123.88
1773.00	22842.07
1774.00	16717.67
1775.00	11002.86
1776.00	6615.91
1777.00	3810.39
1778.00	2215.71
1779.00	1432.41
1780.00	1054.02
1781.00	841.81
1782.00	712.30
1783.00	667.05
1784.00	637.41
1785.00	642.09
1786.00	623.36
1787.00	596.06
1788.00	557.05
1789.00	564.85
1790.00	569.53
1791.00	622.58
1792.00	768.48
1793.00	1600.15
1794.00	3532.65
1795.00	6920.96
1796.00	11504.51
1797.00	15902.38
1798.00	18534.70
1799.00	18348.24
1800.00	16048.27
1801.00	12550.73
1802.00	8892.48
1803.00	5685.94
1804.00	3435.13
1805.00	2075.28
1806.00	1299.78
1807.00	939.34
1808.00	753.65
1809.00	664.71
1810.00	582.01
1811.00	546.91
1812.00	545.34
1813.00	545.34
1814.00	550.03
1815.00	529.74
1816.00	528.96
1817.00	518.04
1818.00	508.68
1819.00	523.50
1820.00	537.54
1821.00	558.61
1822.00	590.60
1823.00	638.97
1824.00	687.34
1825.00	664.71
1826.00	638.19
1827.00	614.00
1828.00	602.30
1829.00	573.43
1830.00	543.78
1831.00	489.17
1832.00	473.57
1833.00	449.38
1834.00	457.96
1835.00	483.71
1836.00	504.78
1837.00	516.48
1838.00	482.15
1839.00	448.60
1840.00	431.44
1841.00	463.43
1842.00	490.73
1843.00	472.01
1844.00	431.44
1845.00	420.52
1846.00	467.33
1847.00	462.65
1848.00	440.02
1849.00	426.76
1850.00	455.62
1851.00	477.47
1852.00	461.09
1853.00	458.75
1854.00	461.87
1855.00	472.79
1856.00	470.45
1857.00	452.50
1858.00	443.92
1859.00	421.30
1860.00	433.78
1861.00	452.50
1862.00	457.18
1863.00	447.82
1864.00	427.54
1865.00	454.06
1866.00	472.01
1867.00	481.37
1868.00	453.28
1869.00	461.87
1870.00	466.55
1871.00	464.99
1872.00	429.10
1873.00	425.20
1874.00	430.66
1875.00	418.96
1876.00	425.98
1877.00	425.20
1878.00	457.96
1879.00	436.90
1880.00	437.68
1881.00	425.20
1882.00	471.23
1883.00	470.45
1884.00	479.03
1885.00	446.26
1886.00	461.09
1887.00	462.65
1888.00	465.77
1889.00	453.28
1890.00	452.50
1891.00	462.65
1892.00	477.47
1893.00	482.93
1894.00	443.92
1895.00	427.54
1896.00	406.47
1897.00	443.14
1898.00	424.42
1899.00	409.59
1900.00	390.09
1901.00	406.47
1902.00	425.98
1903.00	455.62
1904.00	475.13
1905.00	481.37
1906.00	507.90
1907.00	538.32
1908.00	621.80
1909.00	637.41
1910.00	656.91
1911.00	616.34
1912.00	596.84
1913.00	542.22
1914.00	520.38
1915.00	476.69
1916.00	481.37
1917.00	472.79
1918.00	475.91
1919.00	491.51
1920.00	469.67
1921.00	473.57
1922.00	429.10
1923.00	423.64
1924.00	411.15
1925.00	443.14
1926.00	457.18
1927.00	468.89
1928.00	475.91
1929.00	474.35
1930.00	470.45
1931.00	464.21
1932.00	464.99
1933.00	461.09
1934.00	464.21
1935.00	496.19
1936.00	494.63
1937.00	486.83
1938.00	478.25
1939.00	494.63
1940.00	511.80
1941.00	516.48
1942.00	523.50
1943.00	540.66
1944.00	539.10
1945.00	551.59
1946.00	592.16
1947.00	924.51
1948.00	2019.88
1949.00	4042.11
1950.00	7058.28
1951.00	10529.29
1952.00	13426.87
1953.00	14543.31
1954.00	13679.65
1955.00	11722.18
1956.00	9273.20
1957.00	6897.56
1958.00	4671.71
1959.00	3102.77
1960.00	2027.68
1961.00	1364.53
1962.00	990.83
1963.00	766.92
1964.00	651.45
1965.00	606.20
1966.00	582.79
1967.00	563.29
1968.00	539.10
1969.00	525.06
1970.00	526.62
1971.00	500.87
1972.00	506.34
1973.00	518.82
1974.00	561.73
1975.00	620.24
1976.00	718.54
1977.00	919.05
1978.00	1094.59
1979.00	1210.84
1980.00	1225.66
1981.00	1186.65
1982.00	1130.48
1983.00	975.22
1984.00	887.84
1985.00	752.87
1986.00	709.18
1987.00	606.98
1988.00	578.11
1989.00	525.06
1990.00	491.51
1991.00	466.55
1992.00	464.21
1993.00	473.57
1994.00	489.95
1995.00	488.39
1996.00	476.69
1997.00	470.45
1998.00	496.97
1999.00	528.18
2000.00	525.84
2001.00	499.31
2002.00	525.84
2003.00	535.20
2004.00	531.30
2005.00	500.87
2006.00	484.49
2007.00	496.19
2008.00	478.25
2009.00	494.63
2010.00	478.25
2011.00	488.39
2012.00	474.35
2013.00	494.63
2014.00	507.12
2015.00	507.90
2016.00	525.84
2017.00	541.44
2018.00	583.57
2019.00	647.55
2020.00	773.94
2021.00	964.30
2022.00	1166.37
2023.00	1387.16
2024.00	1934.84
2025.00	3511.58
2026.00	6652.58
2027.00	11782.26
2028.00	18481.65
2029.00	25110.05
2030.00	29454.86
2031.00	30109.43
2032.00	27946.00
2033.00	23902.33
2034.00	19030.12
2035.00	13935.55
2036.00	9497.11
2037.00	6179.01
2038.00	3854.08
2039.00	2422.45
2040.00	1604.83
2041.00	1157.78
2042.00	910.47
2043.00	770.82
2044.00	717.76
2045.00	678.76
2046.00	643.65
2047.00	601.52
>>>>>End Processed Spectral Data<<<<<
