SpectraSuite Data File
++++++++++++++++++++++++++++++++++++
Date: Thu Nov 16 13:55:13 EST 2017
User: cheriyan
Dark Spectrum Present: No
Reference Spectrum Present: No
Number of Sampled Component Spectra: 1
Spectrometers: USB2+H05261
Integration Time (usec): 100000 (USB2+H05261)
Spectra Averaged: 1 (USB2+H05261)
Boxcar Smoothing: 1 (USB2+H05261)
Correct for Electrical Dark: No (USB2+H05261)
Strobe/Lamp Enabled: No (USB2+H05261)
Correct for Detector Non-linearity: No (USB2+H05261)
Correct for Stray Light: No (USB2+H05261)
Number of Pixels in Processed Spectrum: 2048
>>>>>Begin Processed Spectral Data<<<<<
0.00	367.46
1.00	367.46
2.00	319.87
3.00	259.80
4.00	222.35
5.00	212.99
6.00	248.88
7.00	241.86
8.00	260.58
9.00	246.54
10.00	252.00
11.00	244.20
12.00	262.92
13.00	240.30
14.00	234.83
15.00	209.87
16.00	238.73
17.00	248.88
18.00	272.28
19.00	257.46
20.00	266.04
21.00	256.68
22.00	279.30
23.00	277.74
24.00	276.96
25.00	298.03
26.00	354.98
27.00	401.79
28.00	396.33
29.00	378.39
30.00	367.46
31.00	382.29
32.00	393.21
33.00	401.01
34.00	409.59
35.00	408.03
36.00	411.93
37.00	405.69
38.00	405.69
39.00	408.81
40.00	408.03
41.00	433.78
42.00	428.32
43.00	431.44
44.00	407.25
45.00	416.62
46.00	414.27
47.00	419.74
48.00	419.74
49.00	439.24
50.00	448.60
51.00	436.12
52.00	425.20
53.00	422.86
54.00	424.42
55.00	425.98
56.00	418.96
57.00	429.88
58.00	439.24
59.00	433.00
60.00	420.52
61.00	406.47
62.00	422.08
63.00	454.84
64.00	433.78
65.00	408.81
66.00	373.71
67.00	385.41
68.00	393.21
69.00	382.29
70.00	379.17
71.00	366.68
72.00	386.97
73.00	397.11
74.00	410.37
75.00	401.79
76.00	392.43
77.00	388.53
78.00	411.15
79.00	423.64
80.00	407.25
81.00	370.58
82.00	359.66
83.00	401.01
84.00	422.86
85.00	446.26
86.00	422.86
87.00	433.78
88.00	411.15
89.00	413.49
90.00	411.15
91.00	417.40
92.00	428.32
93.00	418.96
94.00	400.23
95.00	395.55
96.00	386.19
97.00	386.19
98.00	374.49
99.00	375.27
100.00	404.13
101.00	405.69
102.00	403.35
103.00	393.99
104.00	389.31
105.00	403.35
106.00	399.45
107.00	396.33
108.00	388.53
109.00	395.55
110.00	418.96
111.00	415.84
112.00	397.11
113.00	380.73
114.00	366.68
115.00	365.12
116.00	381.51
117.00	393.21
118.00	410.37
119.00	398.67
120.00	411.15
121.00	408.03
122.00	402.57
123.00	412.71
124.00	453.28
125.00	453.28
126.00	422.08
127.00	396.33
128.00	366.68
129.00	382.29
130.00	378.39
131.00	395.55
132.00	380.73
133.00	385.41
134.00	402.57
135.00	436.90
136.00	426.76
137.00	437.68
138.00	432.22
139.00	436.12
140.00	425.20
141.00	412.71
142.00	413.49
143.00	409.59
144.00	445.48
145.00	468.11
146.00	502.43
147.00	474.35
148.00	456.40
149.00	443.14
150.00	441.58
151.00	426.76
152.00	400.23
153.00	387.75
154.00	396.33
155.00	425.98
156.00	411.93
157.00	412.71
158.00	395.55
159.00	424.42
160.00	440.80
161.00	463.43
162.00	456.40
163.00	433.78
164.00	416.62
165.00	397.89
166.00	422.86
167.00	416.62
168.00	426.76
169.00	401.79
170.00	407.25
171.00	413.49
172.00	399.45
173.00	405.69
174.00	408.03
175.00	422.86
176.00	400.23
177.00	396.33
178.00	380.73
179.00	393.21
180.00	404.91
181.00	418.96
182.00	405.69
183.00	390.09
184.00	369.02
185.00	371.36
186.00	366.68
187.00	379.95
188.00	367.46
189.00	372.93
190.00	377.61
191.00	396.33
192.00	419.74
193.00	418.96
194.00	440.80
195.00	450.94
196.00	526.62
197.00	543.78
198.00	546.91
199.00	493.07
200.00	461.87
201.00	437.68
202.00	416.62
203.00	421.30
204.00	404.91
205.00	429.10
206.00	404.91
207.00	433.00
208.00	413.49
209.00	433.78
210.00	426.76
211.00	443.92
212.00	436.90
213.00	423.64
214.00	422.86
215.00	418.96
216.00	426.76
217.00	420.52
218.00	446.26
219.00	458.75
220.00	467.33
221.00	448.60
222.00	428.32
223.00	395.55
224.00	404.13
225.00	409.59
226.00	433.00
227.00	428.32
228.00	419.74
229.00	415.06
230.00	406.47
231.00	394.77
232.00	391.65
233.00	385.41
234.00	412.71
235.00	428.32
236.00	450.94
237.00	461.87
238.00	434.56
239.00	422.08
240.00	407.25
241.00	422.86
242.00	421.30
243.00	421.30
244.00	426.76
245.00	422.08
246.00	409.59
247.00	401.01
248.00	390.09
249.00	395.55
250.00	393.21
251.00	414.27
252.00	420.52
253.00	419.74
254.00	441.58
255.00	453.28
256.00	469.67
257.00	464.99
258.00	435.34
259.00	405.69
260.00	384.63
261.00	386.19
262.00	398.67
263.00	386.97
264.00	411.93
265.00	450.94
266.00	495.41
267.00	530.52
268.00	546.12
269.00	558.61
270.00	541.44
271.00	526.62
272.00	539.10
273.00	578.89
274.00	609.32
275.00	624.14
276.00	607.76
277.00	584.35
278.00	540.66
279.00	525.84
280.00	511.80
281.00	484.49
282.00	426.76
283.00	393.21
284.00	397.89
285.00	443.14
286.00	444.70
287.00	451.72
288.00	438.46
289.00	457.96
290.00	451.72
291.00	436.12
292.00	413.49
293.00	392.43
294.00	370.58
295.00	390.09
296.00	406.47
297.00	432.22
298.00	403.35
299.00	417.40
300.00	384.63
301.00	387.75
302.00	379.17
303.00	425.20
304.00	433.78
305.00	463.43
306.00	487.61
307.00	572.65
308.00	613.22
309.00	636.63
310.00	641.31
311.00	613.22
312.00	583.57
313.00	491.51
314.00	447.82
315.00	449.38
316.00	468.89
317.00	479.03
318.00	438.46
319.00	411.15
320.00	404.91
321.00	434.56
322.00	459.53
323.00	429.88
324.00	404.91
325.00	390.09
326.00	404.13
327.00	417.40
328.00	420.52
329.00	433.00
330.00	425.20
331.00	438.46
332.00	426.76
333.00	413.49
334.00	422.86
335.00	429.10
336.00	443.92
337.00	446.26
338.00	467.33
339.00	453.28
340.00	423.64
341.00	401.01
342.00	405.69
343.00	393.21
344.00	429.10
345.00	455.62
346.00	538.32
347.00	608.54
348.00	699.82
349.00	727.13
350.00	695.14
351.00	614.78
352.00	560.95
353.00	532.08
354.00	520.38
355.00	519.60
356.00	486.83
357.00	492.29
358.00	466.55
359.00	450.16
360.00	436.12
361.00	455.62
362.00	448.60
363.00	446.26
364.00	417.40
365.00	413.49
366.00	393.99
367.00	403.35
368.00	436.90
369.00	454.06
370.00	442.36
371.00	421.30
372.00	408.03
373.00	412.71
374.00	433.78
375.00	448.60
376.00	448.60
377.00	419.74
378.00	386.19
379.00	359.66
380.00	355.76
381.00	383.07
382.00	404.13
383.00	393.21
384.00	399.45
385.00	398.67
386.00	415.06
387.00	397.11
388.00	393.99
389.00	409.59
390.00	422.08
391.00	433.78
392.00	422.08
393.00	429.88
394.00	418.96
395.00	425.20
396.00	398.67
397.00	420.52
398.00	436.90
399.00	467.33
400.00	449.38
401.00	421.30
402.00	395.55
403.00	394.77
404.00	397.11
405.00	410.37
406.00	418.96
407.00	422.08
408.00	412.71
409.00	397.89
410.00	400.23
411.00	412.71
412.00	447.82
413.00	435.34
414.00	408.03
415.00	378.39
416.00	393.21
417.00	413.49
418.00	418.96
419.00	433.78
420.00	429.88
421.00	414.27
422.00	415.06
423.00	422.86
424.00	425.98
425.00	428.32
426.00	418.96
427.00	424.42
428.00	404.13
429.00	436.12
430.00	429.10
431.00	443.14
432.00	393.21
433.00	383.85
434.00	382.29
435.00	404.13
436.00	427.54
437.00	409.59
438.00	433.00
439.00	440.80
440.00	455.62
441.00	431.44
442.00	443.92
443.00	429.10
444.00	440.80
445.00	424.42
446.00	442.36
447.00	451.72
448.00	447.82
449.00	435.34
450.00	413.49
451.00	412.71
452.00	415.06
453.00	429.10
454.00	432.22
455.00	449.38
456.00	431.44
457.00	408.81
458.00	393.99
459.00	411.15
460.00	433.00
461.00	446.26
462.00	440.02
463.00	442.36
464.00	415.84
465.00	417.40
466.00	411.93
467.00	450.16
468.00	453.28
469.00	460.31
470.00	415.06
471.00	382.29
472.00	400.23
473.00	415.84
474.00	444.70
475.00	431.44
476.00	439.24
477.00	441.58
478.00	454.06
479.00	461.09
480.00	464.99
481.00	443.92
482.00	437.68
483.00	424.42
484.00	425.98
485.00	417.40
486.00	413.49
487.00	429.88
488.00	453.28
489.00	457.18
490.00	425.20
491.00	422.08
492.00	431.44
493.00	450.94
494.00	452.50
495.00	443.92
496.00	421.30
497.00	386.97
498.00	395.55
499.00	417.40
500.00	450.94
501.00	447.04
502.00	419.74
503.00	406.47
504.00	411.15
505.00	445.48
506.00	460.31
507.00	478.25
508.00	466.55
509.00	440.02
510.00	413.49
511.00	402.57
512.00	394.77
513.00	398.67
514.00	429.10
515.00	455.62
516.00	478.25
517.00	453.28
518.00	447.82
519.00	425.98
520.00	415.84
521.00	387.75
522.00	403.35
523.00	409.59
524.00	432.22
525.00	408.81
526.00	433.78
527.00	435.34
528.00	449.38
529.00	429.88
530.00	442.36
531.00	431.44
532.00	443.92
533.00	441.58
534.00	455.62
535.00	440.80
536.00	421.30
537.00	424.42
538.00	429.88
539.00	443.14
540.00	433.00
541.00	440.02
542.00	433.00
543.00	421.30
544.00	401.01
545.00	386.97
546.00	386.97
547.00	417.40
548.00	441.58
549.00	448.60
550.00	432.22
551.00	429.88
552.00	408.81
553.00	416.62
554.00	425.98
555.00	439.24
556.00	437.68
557.00	408.03
558.00	423.64
559.00	412.71
560.00	418.18
561.00	424.42
562.00	413.49
563.00	426.76
564.00	406.47
565.00	407.25
566.00	429.10
567.00	446.26
568.00	450.16
569.00	421.30
570.00	412.71
571.00	405.69
572.00	423.64
573.00	416.62
574.00	444.70
575.00	437.68
576.00	429.88
577.00	424.42
578.00	411.15
579.00	393.99
580.00	408.03
581.00	422.08
582.00	437.68
583.00	409.59
584.00	390.09
585.00	397.89
586.00	410.37
587.00	438.46
588.00	428.32
589.00	442.36
590.00	425.98
591.00	440.80
592.00	420.52
593.00	422.86
594.00	412.71
595.00	407.25
596.00	397.89
597.00	387.75
598.00	412.71
599.00	415.84
600.00	444.70
601.00	425.20
602.00	425.98
603.00	423.64
604.00	411.15
605.00	411.93
606.00	415.84
607.00	426.76
608.00	434.56
609.00	395.55
610.00	383.07
611.00	372.15
612.00	382.29
613.00	393.21
614.00	408.03
615.00	418.18
616.00	433.00
617.00	429.88
618.00	462.65
619.00	460.31
620.00	469.67
621.00	433.00
622.00	425.20
623.00	419.74
624.00	430.66
625.00	458.74
626.00	453.28
627.00	448.60
628.00	414.27
629.00	436.12
630.00	439.24
631.00	435.34
632.00	415.06
633.00	425.20
634.00	436.12
635.00	409.59
636.00	419.74
637.00	416.62
638.00	422.08
639.00	418.96
640.00	398.67
641.00	401.79
642.00	386.19
643.00	417.40
644.00	424.42
645.00	441.58
646.00	422.08
647.00	430.66
648.00	404.13
649.00	404.13
650.00	393.99
651.00	411.15
652.00	446.26
653.00	439.24
654.00	478.25
655.00	450.16
656.00	484.49
657.00	440.02
658.00	430.66
659.00	409.59
660.00	393.99
661.00	418.18
662.00	427.54
663.00	432.22
664.00	424.42
665.00	405.69
666.00	401.79
667.00	435.34
668.00	462.65
669.00	482.93
670.00	451.72
671.00	411.15
672.00	404.13
673.00	410.37
674.00	434.56
675.00	436.12
676.00	422.08
677.00	415.06
678.00	408.81
679.00	409.59
680.00	424.42
681.00	437.68
682.00	435.34
683.00	422.86
684.00	411.15
685.00	418.18
686.00	433.00
687.00	448.60
688.00	453.28
689.00	472.01
690.00	469.67
691.00	461.09
692.00	422.86
693.00	407.25
694.00	407.25
695.00	405.69
696.00	399.45
697.00	400.23
698.00	418.96
699.00	426.76
700.00	433.00
701.00	414.27
702.00	409.59
703.00	422.08
704.00	429.88
705.00	429.10
706.00	408.81
707.00	422.08
708.00	442.36
709.00	453.28
710.00	443.92
711.00	433.78
712.00	431.44
713.00	444.70
714.00	432.22
715.00	424.42
716.00	399.45
717.00	431.44
718.00	485.27
719.00	500.87
720.00	519.60
721.00	493.85
722.00	493.07
723.00	486.05
724.00	469.67
725.00	489.95
726.00	482.15
727.00	481.37
728.00	457.96
729.00	432.22
730.00	426.76
731.00	444.70
732.00	439.24
733.00	437.68
734.00	406.47
735.00	457.18
736.00	481.37
737.00	517.26
738.00	497.75
739.00	480.59
740.00	462.65
741.00	435.34
742.00	439.24
743.00	457.18
744.00	457.18
745.00	459.53
746.00	443.14
747.00	442.36
748.00	424.42
749.00	436.90
750.00	462.65
751.00	463.43
752.00	436.12
753.00	420.52
754.00	417.40
755.00	436.90
756.00	436.90
757.00	445.48
758.00	454.06
759.00	475.91
760.00	492.29
761.00	472.79
762.00	471.23
763.00	436.12
764.00	429.88
765.00	425.20
766.00	443.14
767.00	445.48
768.00	436.12
769.00	423.64
770.00	425.20
771.00	418.96
772.00	433.00
773.00	432.22
774.00	422.08
775.00	404.91
776.00	409.59
777.00	425.98
778.00	454.06
779.00	486.83
780.00	508.68
781.00	545.34
782.00	543.00
783.00	601.52
784.00	554.71
785.00	528.18
786.00	461.09
787.00	447.04
788.00	446.26
789.00	450.16
790.00	464.99
791.00	477.47
792.00	447.82
793.00	440.02
794.00	435.34
795.00	444.70
796.00	464.99
797.00	468.11
798.00	475.13
799.00	447.82
800.00	433.00
801.00	442.36
802.00	491.51
803.00	482.15
804.00	474.35
805.00	449.38
806.00	451.72
807.00	447.82
808.00	453.28
809.00	473.57
810.00	488.39
811.00	479.81
812.00	481.37
813.00	449.38
814.00	404.13
815.00	403.35
816.00	400.23
817.00	442.36
818.00	424.42
819.00	443.14
820.00	425.98
821.00	457.18
822.00	457.18
823.00	500.87
824.00	472.01
825.00	469.67
826.00	436.12
827.00	454.06
828.00	453.28
829.00	478.25
830.00	472.79
831.00	458.74
832.00	458.74
833.00	451.72
834.00	457.18
835.00	420.52
836.00	445.48
837.00	448.60
838.00	471.23
839.00	454.06
840.00	466.55
841.00	462.65
842.00	461.09
843.00	451.72
844.00	464.99
845.00	438.46
846.00	454.84
847.00	462.65
848.00	469.67
849.00	463.43
850.00	429.10
851.00	429.88
852.00	416.62
853.00	413.49
854.00	418.96
855.00	413.49
856.00	407.25
857.00	397.89
858.00	390.87
859.00	388.53
860.00	393.99
861.00	403.35
862.00	441.58
863.00	443.14
864.00	447.82
865.00	432.22
866.00	415.84
867.00	410.37
868.00	373.71
869.00	401.79
870.00	397.89
871.00	439.24
872.00	436.90
873.00	454.84
874.00	454.84
875.00	464.21
876.00	465.77
877.00	430.66
878.00	430.66
879.00	419.74
880.00	450.94
881.00	454.84
882.00	471.23
883.00	487.61
884.00	457.18
885.00	436.12
886.00	437.68
887.00	441.58
888.00	458.75
889.00	437.68
890.00	443.14
891.00	453.28
892.00	452.50
893.00	438.46
894.00	440.02
895.00	418.96
896.00	460.31
897.00	425.20
898.00	436.12
899.00	419.74
900.00	435.34
901.00	464.99
902.00	464.99
903.00	512.58
904.00	617.90
905.00	732.59
906.00	802.80
907.00	802.02
908.00	762.23
909.00	1032.18
910.00	1046.22
911.00	1115.66
912.00	893.30
913.00	909.69
914.00	864.44
915.00	742.73
916.00	622.58
917.00	567.19
918.00	533.64
919.00	510.24
920.00	476.69
921.00	466.55
922.00	453.28
923.00	440.02
924.00	459.53
925.00	471.23
926.00	482.15
927.00	461.09
928.00	458.75
929.00	448.60
930.00	440.02
931.00	434.56
932.00	418.96
933.00	418.18
934.00	415.06
935.00	450.16
936.00	475.13
937.00	478.25
938.00	433.00
939.00	442.36
940.00	454.06
941.00	474.35
942.00	437.68
943.00	565.63
944.00	1046.22
945.00	1887.25
946.00	2919.43
947.00	3602.86
948.00	3735.50
949.00	3206.53
950.00	2405.29
951.00	1611.85
952.00	1029.06
953.00	692.02
954.00	535.98
955.00	487.61
956.00	456.40
957.00	439.24
958.00	436.12
959.00	438.46
960.00	450.16
961.00	425.20
962.00	454.06
963.00	455.62
964.00	473.57
965.00	448.60
966.00	435.34
967.00	423.64
968.00	435.34
969.00	463.43
970.00	468.89
971.00	486.83
972.00	438.46
973.00	440.02
974.00	416.62
975.00	429.10
976.00	422.86
977.00	408.03
978.00	422.86
979.00	438.46
980.00	455.62
981.00	461.09
982.00	437.68
983.00	436.12
984.00	413.49
985.00	422.86
986.00	426.76
987.00	433.00
988.00	440.02
989.00	425.20
990.00	433.78
991.00	425.20
992.00	435.34
993.00	457.96
994.00	465.77
995.00	430.66
996.00	429.88
997.00	433.00
998.00	457.18
999.00	433.78
1000.00	440.80
1001.00	451.72
1002.00	449.38
1003.00	435.34
1004.00	440.02
1005.00	445.48
1006.00	454.84
1007.00	448.60
1008.00	441.58
1009.00	449.38
1010.00	464.99
1011.00	468.89
1012.00	464.99
1013.00	432.22
1014.00	440.02
1015.00	421.30
1016.00	414.27
1017.00	422.86
1018.00	443.14
1019.00	466.55
1020.00	465.77
1021.00	461.09
1022.00	475.91
1023.00	469.67
1024.00	468.11
1025.00	466.55
1026.00	450.16
1027.00	459.53
1028.00	453.28
1029.00	472.79
1030.00	463.43
1031.00	436.90
1032.00	429.88
1033.00	426.76
1034.00	442.36
1035.00	439.24
1036.00	461.87
1037.00	474.35
1038.00	470.45
1039.00	436.12
1040.00	433.00
1041.00	453.28
1042.00	500.87
1043.00	524.28
1044.00	517.26
1045.00	541.44
1046.00	511.80
1047.00	511.02
1048.00	457.96
1049.00	452.50
1050.00	429.10
1051.00	417.40
1052.00	422.86
1053.00	450.94
1054.00	443.14
1055.00	440.80
1056.00	424.42
1057.00	433.00
1058.00	439.24
1059.00	440.80
1060.00	440.80
1061.00	430.66
1062.00	427.54
1063.00	435.34
1064.00	454.84
1065.00	450.16
1066.00	450.16
1067.00	448.60
1068.00	470.45
1069.00	457.18
1070.00	431.44
1071.00	435.34
1072.00	436.90
1073.00	437.68
1074.00	409.59
1075.00	413.49
1076.00	425.98
1077.00	443.14
1078.00	446.26
1079.00	479.81
1080.00	468.89
1081.00	463.43
1082.00	418.18
1083.00	429.10
1084.00	420.52
1085.00	438.46
1086.00	454.06
1087.00	475.13
1088.00	473.57
1089.00	440.80
1090.00	438.46
1091.00	423.64
1092.00	438.46
1093.00	446.26
1094.00	477.47
1095.00	502.43
1096.00	500.87
1097.00	510.24
1098.00	493.07
1099.00	521.94
1100.00	524.28
1101.00	538.32
1102.00	539.10
1103.00	547.69
1104.00	557.83
1105.00	544.56
1106.00	507.12
1107.00	464.99
1108.00	465.77
1109.00	457.18
1110.00	473.57
1111.00	419.74
1112.00	403.35
1113.00	373.71
1114.00	416.62
1115.00	456.40
1116.00	479.81
1117.00	474.35
1118.00	463.43
1119.00	482.15
1120.00	521.16
1121.00	535.98
1122.00	535.98
1123.00	505.56
1124.00	487.61
1125.00	473.57
1126.00	468.89
1127.00	468.11
1128.00	447.82
1129.00	436.90
1130.00	448.60
1131.00	455.62
1132.00	472.01
1133.00	486.83
1134.00	500.09
1135.00	487.61
1136.00	452.50
1137.00	484.49
1138.00	486.05
1139.00	518.04
1140.00	498.53
1141.00	515.70
1142.00	500.87
1143.00	474.35
1144.00	447.82
1145.00	426.76
1146.00	457.96
1147.00	481.37
1148.00	499.31
1149.00	481.37
1150.00	482.93
1151.00	514.14
1152.00	544.56
1153.00	539.10
1154.00	557.05
1155.00	578.11
1156.00	642.87
1157.00	686.56
1158.00	698.26
1159.00	685.00
1160.00	621.80
1161.00	590.60
1162.00	556.27
1163.00	610.10
1164.00	784.86
1165.00	1076.65
1166.00	1430.07
1167.00	1653.98
1168.00	1699.23
1169.00	1522.91
1170.00	1277.93
1171.00	1028.28
1172.00	843.37
1173.00	702.16
1174.00	619.46
1175.00	590.60
1176.00	582.01
1177.00	596.84
1178.00	610.10
1179.00	629.60
1180.00	606.20
1181.00	598.40
1182.00	589.03
1183.00	620.24
1184.00	653.01
1185.00	650.67
1186.00	674.85
1187.00	667.05
1188.00	705.28
1189.00	725.57
1190.00	772.38
1191.00	830.11
1192.00	894.08
1193.00	927.63
1194.00	916.71
1195.00	874.58
1196.00	819.19
1197.00	823.09
1198.00	874.58
1199.00	1039.98
1200.00	1248.29
1201.00	1439.43
1202.00	1536.95
1203.00	1480.78
1204.00	1369.99
1205.00	1223.32
1206.00	1166.37
1207.00	1125.80
1208.00	1136.72
1209.00	1116.44
1210.00	1149.20
1211.00	1178.85
1212.00	1328.64
1213.00	1475.32
1214.00	1710.93
1215.00	1998.82
1216.00	2509.05
1217.00	5731.19
1218.00	21070.28
1219.00	41857.36
1220.00	59828.77
1221.00	65535.00
1222.00	65535.00
1223.00	65535.00
1224.00	65535.00
1225.00	65323.57
1226.00	56214.21
1227.00	40686.31
1228.00	22043.95
1229.00	10858.53
1230.00	5473.73
1231.00	3200.29
1232.00	2277.34
1233.00	1937.18
1234.00	1751.50
1235.00	1699.23
1236.00	2172.02
1237.00	3806.49
1238.00	7073.10
1239.00	11511.53
1240.00	15153.41
1241.00	16199.63
1242.00	14466.07
1243.00	11191.66
1244.00	7715.97
1245.00	4816.04
1246.00	2806.30
1247.00	1756.18
1248.00	1217.08
1249.00	975.22
1250.00	928.41
1251.00	966.64
1252.00	1088.35
1253.00	1200.69
1254.00	1257.65
1255.00	1252.97
1256.00	1225.66
1257.00	1138.28
1258.00	1096.15
1259.00	993.95
1260.00	958.06
1261.00	901.89
1262.00	886.28
1263.00	881.60
1264.00	862.88
1265.00	822.31
1266.00	787.20
1267.00	782.52
1268.00	802.02
1269.00	791.10
1270.00	761.45
1271.00	767.70
1272.00	795.00
1273.00	842.59
1274.00	884.72
1275.00	1239.70
1276.00	2988.86
1277.00	7221.33
1278.00	14663.46
1279.00	22968.46
1280.00	28498.36
1281.00	28550.63
1282.00	24356.39
1283.00	17919.14
1284.00	11755.73
1285.00	6698.61
1286.00	3680.10
1287.00	2133.79
1288.00	1348.93
1289.00	1007.99
1290.00	885.50
1291.00	843.37
1292.00	862.10
1293.00	879.26
1294.00	927.63
1295.00	1115.66
1296.00	1724.97
1297.00	2945.17
1298.00	4664.69
1299.00	6116.60
1300.00	6721.24
1301.00	6207.88
1302.00	5073.50
1303.00	3695.71
1304.00	2519.98
1305.00	1692.99
1306.00	1229.56
1307.00	1029.06
1308.00	895.64
1309.00	845.71
1310.00	767.70
1311.00	698.26
1312.00	633.50
1313.00	588.25
1314.00	574.99
1315.00	596.06
1316.00	602.30
1317.00	610.88
1318.00	591.38
1319.00	583.57
1320.00	539.88
1321.00	500.09
1322.00	511.02
1323.00	523.50
1324.00	571.09
1325.00	566.41
1326.00	585.13
1327.00	562.51
1328.00	588.25
1329.00	684.22
1330.00	1064.94
1331.00	1935.62
1332.00	3456.19
1333.00	5388.69
1334.00	6928.77
1335.00	7325.88
1336.00	6632.30
1337.00	5235.78
1338.00	3761.24
1339.00	2438.84
1340.00	1497.16
1341.00	1036.86
1342.00	786.42
1343.00	727.91
1344.00	656.13
1345.00	649.89
1346.00	615.56
1347.00	595.28
1348.00	589.03
1349.00	595.28
1350.00	631.16
1351.00	645.21
1352.00	702.16
1353.00	709.96
1354.00	728.69
1355.00	727.91
1356.00	780.18
1357.00	880.04
1358.00	1424.61
1359.00	3424.98
1360.00	7674.62
1361.00	14134.50
1362.00	20328.33
1363.00	23613.66
1364.00	22619.72
1365.00	18748.47
1366.00	13557.94
1367.00	8807.44
1368.00	5071.16
1369.00	2966.24
1370.00	1859.17
1371.00	1470.64
1372.00	2120.53
1373.00	5477.63
1374.00	12746.56
1375.00	24179.29
1376.00	35376.42
1377.00	41847.22
1378.00	40650.42
1379.00	34138.27
1380.00	24805.78
1381.00	16051.39
1382.00	9016.52
1383.00	4947.89
1384.00	2736.09
1385.00	1691.43
1386.00	1177.29
1387.00	960.40
1388.00	830.11
1389.00	829.33
1390.00	800.46
1391.00	819.19
1392.00	792.66
1393.00	855.08
1394.00	934.65
1395.00	1138.28
1396.00	1384.82
1397.00	1667.24
1398.00	1809.23
1399.00	1823.28
1400.00	1757.74
1401.00	1692.21
1402.00	2228.97
1403.00	5671.12
1404.00	14736.01
1405.00	30392.64
1406.00	46273.95
1407.00	56868.00
1408.00	58828.58
1409.00	54500.93
1410.00	44849.35
1411.00	31690.07
1412.00	19100.33
1413.00	10100.97
1414.00	5429.26
1415.00	3109.79
1416.00	2515.30
1417.00	3641.87
1418.00	6633.08
1419.00	11122.23
1420.00	15334.41
1421.00	17376.14
1422.00	16419.64
1423.00	13527.52
1424.00	9781.88
1425.00	6431.79
1426.00	3730.03
1427.00	2245.35
1428.00	1436.31
1429.00	1073.53
1430.00	915.93
1431.00	826.99
1432.00	808.26
1433.00	778.62
1434.00	784.86
1435.00	774.72
1436.00	751.31
1437.00	712.30
1438.00	686.56
1439.00	616.34
1440.00	596.84
1441.00	582.01
1442.00	601.52
1443.00	613.22
1444.00	593.72
1445.00	608.54
1446.00	599.18
1447.00	620.24
1448.00	607.76
1449.00	628.82
1450.00	685.00
1451.00	1007.99
1452.00	1864.63
1453.00	3593.50
1454.00	6155.61
1455.00	8665.44
1456.00	10108.77
1457.00	9833.37
1458.00	8431.39
1459.00	6377.96
1460.00	4390.84
1461.00	2697.08
1462.00	1649.30
1463.00	1101.61
1464.00	837.91
1465.00	724.01
1466.00	656.13
1467.00	664.71
1468.00	645.99
1469.00	642.87
1470.00	586.69
1471.00	588.25
1472.00	618.68
1473.00	658.47
1474.00	671.73
1475.00	648.33
1476.00	668.61
1477.00	677.98
1478.00	677.98
1479.00	656.91
1480.00	654.57
1481.00	716.98
1482.00	767.70
1483.00	1147.64
1484.00	3009.93
1485.00	7538.87
1486.00	15715.92
1487.00	25658.51
1488.00	33472.00
1489.00	35489.54
1490.00	31809.44
1491.00	24957.91
1492.00	17343.37
1493.00	10672.84
1494.00	5841.98
1495.00	3207.31
1496.00	1827.18
1497.00	1150.76
1498.00	837.13
1499.00	738.83
1500.00	711.52
1501.00	684.22
1502.00	639.75
1503.00	633.50
1504.00	629.60
1505.00	649.89
1506.00	670.17
1507.00	660.03
1508.00	709.18
1509.00	940.12
1510.00	1725.75
1511.00	3246.32
1512.00	5480.75
1513.00	7534.96
1514.00	8642.82
1515.00	8374.44
1516.00	7206.51
1517.00	5529.13
1518.00	3836.14
1519.00	2431.04
1520.00	1554.12
1521.00	1107.07
1522.00	903.45
1523.00	790.32
1524.00	738.83
1525.00	717.76
1526.00	756.77
1527.00	804.36
1528.00	1043.10
1529.00	2062.01
1530.00	4670.15
1531.00	9424.56
1532.00	15775.21
1533.00	21273.13
1534.00	23629.27
1535.00	22010.40
1536.00	18059.57
1537.00	13077.35
1538.00	8539.83
1539.00	4936.97
1540.00	2865.60
1541.00	1792.07
1542.00	1220.20
1543.00	942.46
1544.00	773.94
1545.00	735.71
1546.00	714.64
1547.00	727.91
1548.00	722.45
1549.00	702.94
1550.00	673.29
1551.00	667.83
1552.00	674.85
1553.00	682.66
1554.00	714.64
1555.00	724.79
1556.00	736.49
1557.00	762.23
1558.00	808.26
1559.00	892.52
1560.00	971.32
1561.00	1685.19
1562.00	4591.35
1563.00	11005.20
1564.00	21777.12
1565.00	33599.17
1566.00	42163.97
1567.00	43525.38
1568.00	39005.03
1569.00	30657.90
1570.00	21536.05
1571.00	13235.73
1572.00	7517.80
1573.00	4436.88
1574.00	3893.87
1575.00	7634.83
1576.00	17262.23
1577.00	32785.44
1578.00	47554.22
1579.00	56908.57
1580.00	58058.55
1581.00	54019.56
1582.00	45099.00
1583.00	32815.87
1584.00	20354.86
1585.00	11075.41
1586.00	5897.37
1587.00	3183.91
1588.00	1874.77
1589.00	1306.02
1590.00	1047.78
1591.00	908.13
1592.00	824.65
1593.00	769.26
1594.00	721.67
1595.00	695.92
1596.00	652.23
1597.00	653.01
1598.00	632.72
1599.00	643.65
1600.00	629.60
1601.00	615.56
1602.00	578.89
1603.00	566.41
1604.00	561.73
1605.00	572.65
1606.00	606.20
1607.00	614.00
1608.00	609.32
1609.00	592.16
1610.00	606.20
1611.00	600.74
1612.00	591.38
1613.00	574.99
1614.00	566.41
1615.00	573.43
1616.00	584.35
1617.00	590.60
1618.00	580.45
1619.00	564.07
1620.00	603.86
1621.00	585.91
1622.00	580.45
1623.00	521.16
1624.00	561.73
1625.00	565.63
1626.00	580.45
1627.00	521.94
1628.00	534.42
1629.00	534.42
1630.00	591.38
1631.00	589.03
1632.00	610.88
1633.00	580.45
1634.00	586.69
1635.00	600.74
1636.00	614.78
1637.00	629.60
1638.00	610.88
1639.00	624.92
1640.00	617.12
1641.00	636.63
1642.00	660.03
1643.00	704.50
1644.00	799.68
1645.00	1341.91
1646.00	3492.08
1647.00	8096.69
1648.00	15996.78
1649.00	25117.85
1650.00	32492.88
1651.00	34664.11
1652.00	31940.51
1653.00	25944.06
1654.00	18870.96
1655.00	12175.47
1656.00	6998.98
1657.00	3881.39
1658.00	2196.98
1659.00	1358.29
1660.00	986.93
1661.00	818.41
1662.00	780.96
1663.00	866.78
1664.00	1431.63
1665.00	2807.08
1666.00	5284.15
1667.00	8361.17
1668.00	11105.84
1669.00	12164.54
1670.00	11510.75
1671.00	9682.80
1672.00	7444.46
1673.00	5194.43
1674.00	3226.04
1675.00	1956.69
1676.00	1206.94
1677.00	869.12
1678.00	652.23
1679.00	595.28
1680.00	530.52
1681.00	525.84
1682.00	511.80
1683.00	543.78
1684.00	539.10
1685.00	528.96
1686.00	520.38
1687.00	509.46
1688.00	524.28
1689.00	497.75
1690.00	500.09
1691.00	492.29
1692.00	488.39
1693.00	494.63
1694.00	517.26
1695.00	553.93
1696.00	546.91
1697.00	547.69
1698.00	549.25
1699.00	569.53
1700.00	549.25
1701.00	511.02
1702.00	503.22
1703.00	525.06
1704.00	546.12
1705.00	540.66
1706.00	514.92
1707.00	527.40
1708.00	575.77
1709.00	850.39
1710.00	1833.42
1711.00	4061.61
1712.00	7774.48
1713.00	12225.40
1714.00	15808.76
1715.00	17169.39
1716.00	16006.14
1717.00	13374.60
1718.00	10078.35
1719.00	6942.81
1720.00	4310.49
1721.00	2566.79
1722.00	1582.20
1723.00	1072.75
1724.00	802.02
1725.00	644.43
1726.00	556.27
1727.00	543.00
1728.00	511.02
1729.00	521.94
1730.00	509.46
1731.00	518.04
1732.00	468.11
1733.00	466.55
1734.00	468.11
1735.00	518.82
1736.00	527.40
1737.00	534.42
1738.00	518.82
1739.00	507.12
1740.00	517.26
1741.00	519.60
1742.00	521.16
1743.00	501.65
1744.00	510.24
1745.00	495.41
1746.00	523.50
1747.00	504.78
1748.00	526.62
1749.00	519.60
1750.00	562.51
1751.00	551.59
1752.00	582.79
1753.00	551.59
1754.00	590.60
1755.00	557.83
1756.00	582.01
1757.00	575.77
1758.00	575.77
1759.00	578.11
1760.00	593.72
1761.00	619.46
1762.00	639.75
1763.00	675.63
1764.00	804.36
1765.00	1479.22
1766.00	3758.12
1767.00	8109.96
1768.00	15035.60
1769.00	22712.56
1770.00	28703.55
1771.00	30429.30
1772.00	28070.82
1773.00	22916.97
1774.00	16754.33
1775.00	10885.83
1776.00	6485.62
1777.00	3778.40
1778.00	2240.67
1779.00	1419.93
1780.00	1017.35
1781.00	797.34
1782.00	724.01
1783.00	647.55
1784.00	638.19
1785.00	608.54
1786.00	599.96
1787.00	597.62
1788.00	582.79
1789.00	589.82
1790.00	561.73
1791.00	594.50
1792.00	755.99
1793.00	1565.04
1794.00	3467.89
1795.00	6778.19
1796.00	11371.10
1797.00	15914.86
1798.00	18616.62
1799.00	18410.65
1800.00	15901.60
1801.00	12415.76
1802.00	8776.23
1803.00	5692.96
1804.00	3409.38
1805.00	2067.47
1806.00	1263.11
1807.00	891.74
1808.00	707.62
1809.00	628.82
1810.00	602.30
1811.00	571.09
1812.00	564.85
1813.00	530.52
1814.00	504.00
1815.00	501.65
1816.00	502.43
1817.00	504.78
1818.00	486.83
1819.00	504.00
1820.00	545.34
1821.00	591.38
1822.00	631.16
1823.00	677.19
1824.00	705.28
1825.00	731.03
1826.00	688.90
1827.00	646.77
1828.00	576.55
1829.00	528.18
1830.00	495.41
1831.00	483.71
1832.00	488.39
1833.00	489.95
1834.00	469.67
1835.00	475.13
1836.00	461.09
1837.00	465.77
1838.00	474.35
1839.00	468.89
1840.00	453.28
1841.00	428.32
1842.00	452.50
1843.00	459.53
1844.00	475.91
1845.00	443.92
1846.00	429.10
1847.00	416.62
1848.00	426.76
1849.00	442.36
1850.00	436.12
1851.00	432.22
1852.00	437.68
1853.00	436.90
1854.00	457.18
1855.00	446.26
1856.00	455.62
1857.00	464.99
1858.00	480.59
1859.00	475.13
1860.00	448.60
1861.00	457.96
1862.00	455.62
1863.00	458.75
1864.00	457.96
1865.00	486.05
1866.00	497.75
1867.00	471.23
1868.00	452.50
1869.00	447.82
1870.00	431.44
1871.00	422.86
1872.00	428.32
1873.00	464.21
1874.00	471.23
1875.00	467.33
1876.00	435.34
1877.00	422.86
1878.00	400.23
1879.00	414.27
1880.00	429.10
1881.00	455.62
1882.00	488.39
1883.00	472.79
1884.00	492.29
1885.00	500.87
1886.00	507.12
1887.00	485.27
1888.00	445.48
1889.00	447.82
1890.00	454.06
1891.00	469.67
1892.00	460.31
1893.00	431.44
1894.00	401.79
1895.00	424.42
1896.00	433.00
1897.00	461.87
1898.00	437.68
1899.00	433.78
1900.00	442.36
1901.00	465.77
1902.00	486.05
1903.00	489.17
1904.00	494.63
1905.00	485.27
1906.00	511.80
1907.00	531.30
1908.00	599.96
1909.00	630.38
1910.00	645.21
1911.00	649.11
1912.00	612.44
1913.00	578.89
1914.00	521.16
1915.00	507.90
1916.00	488.39
1917.00	488.39
1918.00	447.04
1919.00	451.72
1920.00	460.31
1921.00	476.69
1922.00	467.33
1923.00	452.50
1924.00	472.01
1925.00	480.59
1926.00	476.69
1927.00	464.99
1928.00	468.11
1929.00	474.35
1930.00	489.95
1931.00	483.71
1932.00	495.41
1933.00	494.63
1934.00	518.04
1935.00	481.37
1936.00	462.65
1937.00	458.75
1938.00	482.15
1939.00	505.56
1940.00	472.79
1941.00	481.37
1942.00	486.05
1943.00	524.28
1944.00	536.76
1945.00	531.30
1946.00	605.42
1947.00	977.56
1948.00	2086.20
1949.00	4047.57
1950.00	7049.69
1951.00	10457.51
1952.00	13344.95
1953.00	14471.53
1954.00	13773.27
1955.00	11794.74
1956.00	9320.79
1957.00	6830.46
1958.00	4691.21
1959.00	3119.93
1960.00	2048.75
1961.00	1366.87
1962.00	970.54
1963.00	730.25
1964.00	644.43
1965.00	593.72
1966.00	586.69
1967.00	550.03
1968.00	543.00
1969.00	537.54
1970.00	509.46
1971.00	492.29
1972.00	475.91
1973.00	488.39
1974.00	517.26
1975.00	604.64
1976.00	737.27
1977.00	915.15
1978.00	1110.97
1979.00	1259.21
1980.00	1296.66
1981.00	1245.16
1982.00	1126.58
1983.00	988.49
1984.00	833.23
1985.00	686.56
1986.00	589.03
1987.00	525.06
1988.00	525.06
1989.00	524.28
1990.00	501.65
1991.00	479.81
1992.00	437.68
1993.00	449.38
1994.00	458.75
1995.00	489.95
1996.00	470.45
1997.00	461.09
1998.00	466.55
1999.00	486.83
2000.00	500.87
2001.00	504.78
2002.00	545.34
2003.00	552.37
2004.00	569.53
2005.00	516.48
2006.00	512.58
2007.00	487.61
2008.00	492.29
2009.00	486.05
2010.00	462.65
2011.00	472.01
2012.00	475.13
2013.00	501.65
2014.00	518.82
2015.00	519.60
2016.00	510.24
2017.00	521.94
2018.00	560.17
2019.00	664.71
2020.00	800.46
2021.00	962.74
2022.00	1149.98
2023.00	1372.33
2024.00	1900.52
2025.00	3503.78
2026.00	6744.64
2027.00	11854.03
2028.00	18515.20
2029.00	24958.69
2030.00	29341.74
2031.00	29945.59
2032.00	27813.37
2033.00	23784.52
2034.00	19080.83
2035.00	14040.87
2036.00	9643.01
2037.00	6220.36
2038.00	3905.57
2039.00	2443.52
2040.00	1637.59
2041.00	1169.49
2042.00	922.95
2043.00	763.79
2044.00	712.30
2045.00	674.07
2046.00	657.69
2047.00	631.94
>>>>>End Processed Spectral Data<<<<<
