SpectraSuite Data File
++++++++++++++++++++++++++++++++++++
Date: Thu Nov 16 13:55:19 EST 2017
User: cheriyan
Dark Spectrum Present: No
Reference Spectrum Present: No
Number of Sampled Component Spectra: 1
Spectrometers: USB2+H05261
Integration Time (usec): 100000 (USB2+H05261)
Spectra Averaged: 1 (USB2+H05261)
Boxcar Smoothing: 1 (USB2+H05261)
Correct for Electrical Dark: No (USB2+H05261)
Strobe/Lamp Enabled: No (USB2+H05261)
Correct for Detector Non-linearity: No (USB2+H05261)
Correct for Stray Light: No (USB2+H05261)
Number of Pixels in Processed Spectrum: 2048
>>>>>Begin Processed Spectral Data<<<<<
0.00	397.89
1.00	397.89
2.00	379.17
3.00	330.80
4.00	281.64
5.00	243.42
6.00	228.59
7.00	219.23
8.00	242.64
9.00	223.13
10.00	223.13
11.00	195.82
12.00	224.69
13.00	238.73
14.00	262.92
15.00	288.67
16.00	259.02
17.00	241.08
18.00	225.47
19.00	267.60
20.00	301.15
21.00	302.71
22.00	300.37
23.00	299.59
24.00	330.02
25.00	374.49
26.00	374.49
27.00	369.02
28.00	337.82
29.00	354.98
30.00	355.76
31.00	358.10
32.00	375.27
33.00	377.61
34.00	425.20
35.00	433.78
36.00	441.58
37.00	445.48
38.00	412.71
39.00	401.79
40.00	352.64
41.00	354.20
42.00	365.90
43.00	369.02
44.00	392.43
45.00	380.73
46.00	412.71
47.00	409.59
48.00	454.84
49.00	427.54
50.00	428.32
51.00	408.81
52.00	457.96
53.00	457.96
54.00	457.18
55.00	418.96
56.00	405.69
57.00	429.88
58.00	446.26
59.00	449.38
60.00	433.78
61.00	403.35
62.00	399.45
63.00	370.58
64.00	384.63
65.00	415.84
66.00	429.10
67.00	433.78
68.00	389.31
69.00	390.87
70.00	388.53
71.00	414.27
72.00	438.46
73.00	438.46
74.00	434.56
75.00	415.84
76.00	426.76
77.00	436.12
78.00	415.84
79.00	408.81
80.00	399.45
81.00	419.74
82.00	439.24
83.00	440.80
84.00	468.11
85.00	436.12
86.00	410.37
87.00	365.12
88.00	390.87
89.00	401.79
90.00	418.18
91.00	405.69
92.00	426.76
93.00	422.86
94.00	406.47
95.00	388.53
96.00	391.65
97.00	397.11
98.00	393.21
99.00	382.29
100.00	376.05
101.00	386.97
102.00	383.85
103.00	397.89
104.00	409.59
105.00	422.86
106.00	432.22
107.00	425.20
108.00	438.46
109.00	431.44
110.00	401.01
111.00	383.07
112.00	362.00
113.00	386.97
114.00	372.15
115.00	383.07
116.00	396.33
117.00	408.81
118.00	402.57
119.00	388.53
120.00	385.41
121.00	384.63
122.00	379.17
123.00	380.73
124.00	390.09
125.00	383.85
126.00	395.55
127.00	402.57
128.00	398.67
129.00	400.23
130.00	401.79
131.00	438.46
132.00	447.04
133.00	454.84
134.00	429.10
135.00	433.00
136.00	414.27
137.00	433.78
138.00	427.54
139.00	420.52
140.00	400.23
141.00	390.87
142.00	410.37
143.00	425.98
144.00	425.20
145.00	431.44
146.00	472.79
147.00	498.53
148.00	488.39
149.00	464.99
150.00	443.14
151.00	437.68
152.00	414.27
153.00	396.33
154.00	405.69
155.00	395.55
156.00	390.87
157.00	401.79
158.00	409.59
159.00	436.90
160.00	433.78
161.00	429.88
162.00	425.20
163.00	400.23
164.00	383.07
165.00	395.55
166.00	393.99
167.00	408.81
168.00	377.61
169.00	381.51
170.00	357.32
171.00	369.02
172.00	379.95
173.00	404.13
174.00	419.74
175.00	431.44
176.00	454.06
177.00	455.62
178.00	445.48
179.00	425.20
180.00	402.57
181.00	392.43
182.00	379.17
183.00	389.31
184.00	390.87
185.00	397.11
186.00	404.13
187.00	401.79
188.00	395.55
189.00	365.90
190.00	365.90
191.00	389.31
192.00	422.86
193.00	462.65
194.00	500.09
195.00	500.09
196.00	501.65
197.00	490.73
198.00	498.53
199.00	478.25
200.00	453.28
201.00	446.26
202.00	462.65
203.00	466.55
204.00	479.03
205.00	457.18
206.00	436.90
207.00	422.08
208.00	401.79
209.00	399.45
210.00	398.67
211.00	434.56
212.00	444.70
213.00	426.76
214.00	395.55
215.00	386.97
216.00	360.44
217.00	372.93
218.00	408.03
219.00	450.94
220.00	426.76
221.00	395.55
222.00	382.29
223.00	404.91
224.00	410.37
225.00	399.45
226.00	415.06
227.00	415.84
228.00	435.34
229.00	408.81
230.00	396.33
231.00	363.56
232.00	351.86
233.00	354.98
234.00	385.41
235.00	405.69
236.00	420.52
237.00	414.27
238.00	414.27
239.00	408.81
240.00	418.18
241.00	418.96
242.00	415.84
243.00	393.21
244.00	389.31
245.00	394.77
246.00	431.44
247.00	429.88
248.00	435.34
249.00	417.40
250.00	402.57
251.00	391.65
252.00	370.58
253.00	404.13
254.00	405.69
255.00	455.62
256.00	443.14
257.00	454.06
258.00	450.16
259.00	455.62
260.00	464.99
261.00	447.82
262.00	422.86
263.00	422.86
264.00	422.08
265.00	450.16
266.00	488.39
267.00	516.48
268.00	551.59
269.00	532.08
270.00	560.95
271.00	548.47
272.00	551.59
273.00	537.54
274.00	571.87
275.00	601.52
276.00	626.48
277.00	590.60
278.00	557.05
279.00	500.09
280.00	476.69
281.00	457.96
282.00	461.09
283.00	480.59
284.00	467.33
285.00	434.56
286.00	416.62
287.00	410.37
288.00	403.35
289.00	387.75
290.00	395.55
291.00	436.12
292.00	453.28
293.00	452.50
294.00	439.24
295.00	425.98
296.00	418.18
297.00	411.15
298.00	422.08
299.00	427.54
300.00	429.10
301.00	417.40
302.00	400.23
303.00	398.67
304.00	413.49
305.00	458.75
306.00	490.73
307.00	546.12
308.00	605.42
309.00	649.11
310.00	649.89
311.00	599.96
312.00	546.91
313.00	468.11
314.00	429.88
315.00	400.23
316.00	438.46
317.00	457.96
318.00	456.40
319.00	429.10
320.00	422.08
321.00	429.10
322.00	444.70
323.00	432.22
324.00	457.18
325.00	444.70
326.00	426.76
327.00	384.63
328.00	385.41
329.00	413.49
330.00	426.76
331.00	442.36
332.00	435.34
333.00	424.42
334.00	414.27
335.00	427.54
336.00	433.78
337.00	406.47
338.00	397.11
339.00	397.11
340.00	401.79
341.00	403.35
342.00	419.74
343.00	451.72
344.00	466.55
345.00	490.73
346.00	534.42
347.00	613.22
348.00	716.20
349.00	771.60
350.00	750.53
351.00	649.11
352.00	592.94
353.00	578.89
354.00	610.10
355.00	611.66
356.00	576.55
357.00	527.40
358.00	459.53
359.00	420.52
360.00	408.81
361.00	431.44
362.00	425.98
363.00	414.27
364.00	410.37
365.00	431.44
366.00	443.92
367.00	452.50
368.00	468.89
369.00	469.67
370.00	456.40
371.00	447.04
372.00	454.06
373.00	417.40
374.00	395.55
375.00	386.97
376.00	404.13
377.00	405.69
378.00	384.63
379.00	397.11
380.00	401.79
381.00	426.76
382.00	407.25
383.00	391.65
384.00	389.31
385.00	422.86
386.00	432.22
387.00	429.10
388.00	426.76
389.00	433.00
390.00	422.08
391.00	399.45
392.00	397.89
393.00	411.93
394.00	423.64
395.00	447.82
396.00	439.24
397.00	439.24
398.00	421.30
399.00	418.18
400.00	403.35
401.00	420.52
402.00	414.27
403.00	454.84
404.00	438.46
405.00	454.06
406.00	401.79
407.00	396.33
408.00	389.31
409.00	420.52
410.00	411.15
411.00	406.47
412.00	389.31
413.00	418.18
414.00	399.45
415.00	386.19
416.00	354.20
417.00	376.83
418.00	400.23
419.00	392.43
420.00	397.89
421.00	393.99
422.00	405.69
423.00	425.98
424.00	430.66
425.00	447.82
426.00	426.76
427.00	419.74
428.00	412.71
429.00	404.13
430.00	393.99
431.00	379.17
432.00	365.90
433.00	390.87
434.00	401.79
435.00	435.34
436.00	421.30
437.00	432.22
438.00	408.81
439.00	415.84
440.00	389.31
441.00	418.96
442.00	440.02
443.00	461.09
444.00	447.04
445.00	427.54
446.00	426.76
447.00	436.90
448.00	478.25
449.00	477.47
450.00	475.91
451.00	445.48
452.00	423.64
453.00	390.09
454.00	369.02
455.00	379.95
456.00	422.86
457.00	429.88
458.00	441.58
459.00	440.02
460.00	453.28
461.00	433.78
462.00	407.25
463.00	402.57
464.00	416.62
465.00	420.52
466.00	399.45
467.00	397.11
468.00	404.13
469.00	432.22
470.00	443.92
471.00	448.60
472.00	428.32
473.00	425.20
474.00	409.59
475.00	429.10
476.00	432.22
477.00	442.36
478.00	408.03
479.00	404.91
480.00	386.19
481.00	394.77
482.00	393.21
483.00	425.98
484.00	433.78
485.00	443.14
486.00	415.06
487.00	432.22
488.00	420.52
489.00	451.72
490.00	417.40
491.00	414.27
492.00	393.99
493.00	416.62
494.00	443.92
495.00	464.21
496.00	484.49
497.00	496.97
498.00	436.90
499.00	408.03
500.00	375.27
501.00	421.30
502.00	404.91
503.00	421.30
504.00	413.49
505.00	446.26
506.00	443.92
507.00	447.04
508.00	433.78
509.00	422.86
510.00	400.23
511.00	389.31
512.00	405.69
513.00	441.58
514.00	475.13
515.00	474.35
516.00	453.28
517.00	440.80
518.00	420.52
519.00	440.02
520.00	429.10
521.00	409.59
522.00	407.25
523.00	417.40
524.00	448.60
525.00	446.26
526.00	443.92
527.00	421.30
528.00	386.19
529.00	370.58
530.00	382.29
531.00	418.96
532.00	446.26
533.00	429.10
534.00	430.66
535.00	418.18
536.00	425.98
537.00	419.74
538.00	422.86
539.00	453.28
540.00	465.77
541.00	451.72
542.00	440.02
543.00	433.00
544.00	457.96
545.00	431.44
546.00	420.52
547.00	440.80
548.00	440.02
549.00	456.40
550.00	429.10
551.00	486.05
552.00	479.81
553.00	486.83
554.00	431.44
555.00	425.98
556.00	421.30
557.00	450.16
558.00	425.20
559.00	417.40
560.00	407.25
561.00	441.58
562.00	439.24
563.00	456.40
564.00	440.02
565.00	435.34
566.00	435.34
567.00	446.26
568.00	442.36
569.00	436.90
570.00	446.26
571.00	478.25
572.00	452.50
573.00	425.98
574.00	411.93
575.00	420.52
576.00	445.48
577.00	440.80
578.00	438.46
579.00	433.00
580.00	414.27
581.00	417.40
582.00	415.06
583.00	425.20
584.00	436.90
585.00	439.24
586.00	435.34
587.00	415.06
588.00	400.23
589.00	404.91
590.00	400.23
591.00	395.55
592.00	409.59
593.00	442.36
594.00	453.28
595.00	437.68
596.00	427.54
597.00	436.12
598.00	411.15
599.00	407.25
600.00	404.91
601.00	433.00
602.00	422.08
603.00	409.59
604.00	418.96
605.00	444.70
606.00	471.23
607.00	461.87
608.00	428.32
609.00	425.20
610.00	435.34
611.00	453.28
612.00	428.32
613.00	430.66
614.00	446.26
615.00	457.96
616.00	457.18
617.00	433.78
618.00	410.37
619.00	401.01
620.00	409.59
621.00	418.18
622.00	418.96
623.00	420.52
624.00	436.12
625.00	461.87
626.00	464.21
627.00	463.43
628.00	437.68
629.00	436.12
630.00	447.82
631.00	450.94
632.00	454.84
633.00	408.03
634.00	370.58
635.00	383.85
636.00	424.42
637.00	442.36
638.00	411.93
639.00	423.64
640.00	452.50
641.00	455.62
642.00	437.68
643.00	443.92
644.00	440.80
645.00	425.98
646.00	396.33
647.00	425.20
648.00	446.26
649.00	469.67
650.00	442.36
651.00	439.24
652.00	425.20
653.00	429.88
654.00	498.53
655.00	502.44
656.00	496.97
657.00	435.34
658.00	427.54
659.00	426.76
660.00	402.57
661.00	417.40
662.00	429.88
663.00	456.40
664.00	433.00
665.00	442.36
666.00	419.74
667.00	435.34
668.00	429.88
669.00	445.48
670.00	433.78
671.00	402.57
672.00	379.17
673.00	389.31
674.00	404.91
675.00	416.62
676.00	425.98
677.00	434.56
678.00	446.26
679.00	443.92
680.00	449.38
681.00	440.80
682.00	424.42
683.00	422.86
684.00	436.12
685.00	452.50
686.00	410.37
687.00	393.99
688.00	377.61
689.00	402.57
690.00	386.19
691.00	374.49
692.00	407.25
693.00	418.96
694.00	417.40
695.00	390.87
696.00	415.06
697.00	428.32
698.00	426.76
699.00	415.84
700.00	437.68
701.00	442.36
702.00	455.62
703.00	422.08
704.00	415.84
705.00	391.65
706.00	408.03
707.00	436.12
708.00	439.24
709.00	421.30
710.00	390.87
711.00	403.35
712.00	422.08
713.00	429.88
714.00	405.69
715.00	421.30
716.00	443.14
717.00	463.43
718.00	506.34
719.00	465.77
720.00	450.16
721.00	388.53
722.00	404.91
723.00	396.33
724.00	395.55
725.00	409.59
726.00	435.34
727.00	449.38
728.00	425.20
729.00	420.52
730.00	431.44
731.00	477.47
732.00	500.87
733.00	506.34
734.00	495.41
735.00	518.04
736.00	520.38
737.00	521.94
738.00	505.56
739.00	503.22
740.00	490.73
741.00	479.81
742.00	475.91
743.00	496.97
744.00	482.15
745.00	463.43
746.00	450.94
747.00	453.28
748.00	437.68
749.00	424.42
750.00	415.06
751.00	446.26
752.00	441.58
753.00	455.62
754.00	449.38
755.00	441.58
756.00	409.59
757.00	418.18
758.00	451.72
759.00	496.19
760.00	490.73
761.00	484.49
762.00	472.01
763.00	479.03
764.00	466.55
765.00	454.06
766.00	420.52
767.00	406.47
768.00	395.55
769.00	415.06
770.00	430.66
771.00	452.50
772.00	439.24
773.00	429.88
774.00	429.88
775.00	448.60
776.00	452.50
777.00	443.14
778.00	439.24
779.00	475.13
780.00	524.28
781.00	562.51
782.00	564.07
783.00	609.32
784.00	606.20
785.00	582.01
786.00	493.07
787.00	454.84
788.00	418.96
789.00	397.11
790.00	368.24
791.00	375.27
792.00	384.63
793.00	390.87
794.00	414.27
795.00	420.52
796.00	467.33
797.00	492.29
798.00	497.75
799.00	486.05
800.00	455.62
801.00	471.23
802.00	468.89
803.00	464.99
804.00	447.82
805.00	442.36
806.00	474.35
807.00	467.33
808.00	460.31
809.00	417.40
810.00	430.66
811.00	447.82
812.00	473.57
813.00	466.55
814.00	429.88
815.00	399.45
816.00	410.37
817.00	429.88
818.00	446.26
819.00	420.52
820.00	420.52
821.00	466.55
822.00	509.46
823.00	526.62
824.00	486.05
825.00	469.67
826.00	470.45
827.00	496.19
828.00	478.25
829.00	470.45
830.00	464.21
831.00	468.11
832.00	455.62
833.00	448.60
834.00	457.18
835.00	488.39
836.00	492.29
837.00	483.71
838.00	486.05
839.00	475.91
840.00	487.61
841.00	475.91
842.00	474.35
843.00	469.67
844.00	460.31
845.00	433.00
846.00	437.68
847.00	441.58
848.00	492.29
849.00	486.83
850.00	496.97
851.00	438.46
852.00	438.46
853.00	425.98
854.00	468.89
855.00	447.04
856.00	424.42
857.00	402.57
858.00	427.54
859.00	432.22
860.00	436.90
861.00	443.14
862.00	452.50
863.00	461.87
864.00	440.02
865.00	428.32
866.00	442.36
867.00	450.94
868.00	462.65
869.00	446.26
870.00	434.56
871.00	439.24
872.00	433.78
873.00	440.80
874.00	444.70
875.00	429.88
876.00	434.56
877.00	424.42
878.00	436.12
879.00	442.36
880.00	479.03
881.00	486.05
882.00	482.93
883.00	441.58
884.00	427.54
885.00	451.72
886.00	477.47
887.00	492.29
888.00	467.33
889.00	450.16
890.00	460.31
891.00	450.16
892.00	459.53
893.00	457.96
894.00	465.77
895.00	449.38
896.00	463.43
897.00	463.43
898.00	458.75
899.00	433.78
900.00	430.66
901.00	433.78
902.00	451.72
903.00	499.31
904.00	593.72
905.00	703.72
906.00	786.42
907.00	787.20
908.00	733.37
909.00	1001.75
910.00	1042.32
911.00	1100.83
912.00	892.52
913.00	926.85
914.00	896.43
915.00	757.55
916.00	621.80
917.00	560.17
918.00	502.44
919.00	471.23
920.00	415.06
921.00	409.59
922.00	415.84
923.00	422.08
924.00	436.12
925.00	440.02
926.00	464.99
927.00	457.96
928.00	443.14
929.00	443.92
930.00	483.71
931.00	489.17
932.00	475.91
933.00	440.80
934.00	457.18
935.00	485.27
936.00	499.31
937.00	485.27
938.00	452.50
939.00	439.24
940.00	433.00
941.00	450.94
942.00	483.71
943.00	650.67
944.00	1056.36
945.00	1910.66
946.00	2935.81
947.00	3692.59
948.00	3744.86
949.00	3223.70
950.00	2416.21
951.00	1652.42
952.00	1081.33
953.00	730.25
954.00	573.43
955.00	492.29
956.00	454.06
957.00	459.53
958.00	428.32
959.00	444.70
960.00	433.78
961.00	444.70
962.00	466.55
963.00	478.25
964.00	478.25
965.00	456.40
966.00	464.21
967.00	461.09
968.00	456.40
969.00	408.81
970.00	422.86
971.00	431.44
972.00	454.06
973.00	436.12
974.00	422.86
975.00	402.57
976.00	427.54
977.00	433.78
978.00	452.50
979.00	467.33
980.00	468.11
981.00	439.24
982.00	408.81
983.00	407.25
984.00	448.60
985.00	456.40
986.00	447.04
987.00	432.22
988.00	423.64
989.00	446.26
990.00	448.60
991.00	454.84
992.00	457.96
993.00	436.90
994.00	433.78
995.00	412.71
996.00	440.80
997.00	431.44
998.00	440.02
999.00	441.58
1000.00	440.02
1001.00	461.09
1002.00	471.23
1003.00	470.45
1004.00	461.87
1005.00	459.53
1006.00	472.01
1007.00	464.99
1008.00	422.86
1009.00	406.47
1010.00	433.00
1011.00	448.60
1012.00	489.95
1013.00	444.70
1014.00	453.28
1015.00	441.58
1016.00	435.34
1017.00	427.54
1018.00	416.62
1019.00	435.34
1020.00	443.14
1021.00	435.34
1022.00	419.74
1023.00	433.00
1024.00	450.94
1025.00	463.43
1026.00	450.16
1027.00	436.90
1028.00	433.00
1029.00	433.00
1030.00	426.76
1031.00	450.16
1032.00	457.96
1033.00	470.45
1034.00	432.22
1035.00	406.47
1036.00	398.67
1037.00	445.48
1038.00	457.96
1039.00	458.75
1040.00	476.69
1041.00	508.68
1042.00	525.06
1043.00	504.78
1044.00	520.38
1045.00	570.31
1046.00	578.89
1047.00	533.64
1048.00	468.11
1049.00	439.24
1050.00	433.78
1051.00	440.80
1052.00	460.31
1053.00	482.93
1054.00	475.13
1055.00	456.40
1056.00	446.26
1057.00	440.80
1058.00	441.58
1059.00	429.10
1060.00	454.06
1061.00	466.55
1062.00	449.38
1063.00	421.30
1064.00	384.63
1065.00	415.06
1066.00	416.62
1067.00	469.67
1068.00	460.31
1069.00	479.81
1070.00	456.40
1071.00	462.65
1072.00	452.50
1073.00	436.90
1074.00	445.48
1075.00	450.16
1076.00	468.11
1077.00	476.69
1078.00	482.15
1079.00	471.23
1080.00	426.76
1081.00	418.96
1082.00	400.23
1083.00	430.66
1084.00	417.40
1085.00	436.90
1086.00	455.62
1087.00	453.28
1088.00	442.36
1089.00	446.26
1090.00	471.23
1091.00	495.41
1092.00	479.81
1093.00	467.33
1094.00	482.93
1095.00	479.03
1096.00	452.50
1097.00	435.34
1098.00	460.31
1099.00	518.82
1100.00	568.75
1101.00	550.81
1102.00	566.41
1103.00	531.30
1104.00	555.49
1105.00	526.62
1106.00	517.26
1107.00	489.17
1108.00	480.59
1109.00	472.01
1110.00	454.84
1111.00	450.94
1112.00	434.56
1113.00	452.50
1114.00	472.01
1115.00	457.18
1116.00	440.02
1117.00	422.86
1118.00	447.82
1119.00	454.06
1120.00	464.99
1121.00	488.39
1122.00	546.91
1123.00	521.94
1124.00	508.68
1125.00	457.96
1126.00	494.63
1127.00	484.49
1128.00	457.96
1129.00	449.38
1130.00	457.18
1131.00	484.49
1132.00	465.77
1133.00	461.87
1134.00	454.06
1135.00	461.09
1136.00	459.53
1137.00	476.69
1138.00	471.23
1139.00	494.63
1140.00	482.93
1141.00	484.49
1142.00	468.11
1143.00	479.81
1144.00	488.39
1145.00	479.81
1146.00	489.95
1147.00	490.73
1148.00	493.07
1149.00	470.45
1150.00	491.51
1151.00	500.09
1152.00	517.26
1153.00	525.84
1154.00	575.77
1155.00	606.98
1156.00	680.32
1157.00	703.72
1158.00	742.73
1159.00	717.76
1160.00	671.73
1161.00	633.50
1162.00	595.28
1163.00	649.11
1164.00	777.84
1165.00	1043.88
1166.00	1366.87
1167.00	1600.93
1168.00	1643.06
1169.00	1493.26
1170.00	1253.75
1171.00	1022.81
1172.00	825.43
1173.00	685.78
1174.00	580.45
1175.00	546.12
1176.00	534.42
1177.00	557.83
1178.00	575.77
1179.00	603.08
1180.00	638.19
1181.00	666.27
1182.00	677.98
1183.00	651.45
1184.00	624.14
1185.00	610.88
1186.00	613.22
1187.00	633.50
1188.00	656.13
1189.00	696.70
1190.00	738.05
1191.00	805.14
1192.00	869.90
1193.00	891.74
1194.00	862.88
1195.00	809.83
1196.00	796.56
1197.00	795.00
1198.00	865.22
1199.00	1031.40
1200.00	1274.81
1201.00	1477.66
1202.00	1545.53
1203.00	1530.71
1204.00	1426.95
1205.00	1323.18
1206.00	1175.73
1207.00	1118.00
1208.00	1082.11
1209.00	1124.24
1210.00	1161.69
1211.00	1251.41
1212.00	1338.79
1213.00	1468.30
1214.00	1651.64
1215.00	1980.87
1216.00	2569.13
1217.00	5853.68
1218.00	21362.85
1219.00	42080.49
1220.00	60001.19
1221.00	65535.00
1222.00	65535.00
1223.00	65535.00
1224.00	65535.00
1225.00	65377.40
1226.00	56194.70
1227.00	40546.66
1228.00	21904.29
1229.00	10789.87
1230.00	5533.03
1231.00	3184.69
1232.00	2244.57
1233.00	1863.07
1234.00	1675.82
1235.00	1611.85
1236.00	2072.93
1237.00	3758.12
1238.00	7084.02
1239.00	11561.47
1240.00	15212.70
1241.00	16365.81
1242.00	14655.65
1243.00	11371.88
1244.00	7754.98
1245.00	4810.58
1246.00	2761.83
1247.00	1703.91
1248.00	1146.08
1249.00	940.90
1250.00	919.05
1251.00	980.68
1252.00	1076.65
1253.00	1188.99
1254.00	1252.19
1255.00	1270.13
1256.00	1199.91
1257.00	1168.71
1258.00	1068.84
1259.00	991.61
1260.00	893.30
1261.00	858.20
1262.00	853.52
1263.00	853.52
1264.00	836.35
1265.00	837.91
1266.00	844.93
1267.00	820.75
1268.00	780.96
1269.00	734.15
1270.00	772.38
1271.00	787.98
1272.00	814.51
1273.00	815.29
1274.00	860.54
1275.00	1250.63
1276.00	3016.95
1277.00	7293.89
1278.00	14710.27
1279.00	22913.06
1280.00	28538.15
1281.00	28592.76
1282.00	24393.84
1283.00	17857.51
1284.00	11693.32
1285.00	6709.54
1286.00	3647.33
1287.00	2097.12
1288.00	1327.86
1289.00	993.17
1290.00	864.44
1291.00	833.23
1292.00	887.84
1293.00	895.64
1294.00	941.68
1295.00	1081.33
1296.00	1710.93
1297.00	2925.67
1298.00	4692.77
1299.00	6207.88
1300.00	6861.67
1301.00	6269.51
1302.00	5021.23
1303.00	3594.28
1304.00	2445.08
1305.00	1630.57
1306.00	1176.51
1307.00	940.12
1308.00	844.93
1309.00	788.76
1310.00	755.99
1311.00	695.14
1312.00	673.29
1313.00	650.67
1314.00	663.15
1315.00	636.63
1316.00	624.14
1317.00	589.03
1318.00	590.60
1319.00	590.60
1320.00	582.79
1321.00	564.07
1322.00	568.75
1323.00	571.09
1324.00	560.17
1325.00	562.51
1326.00	569.53
1327.00	604.64
1328.00	592.94
1329.00	654.57
1330.00	1013.45
1331.00	1924.70
1332.00	3496.76
1333.00	5454.23
1334.00	7006.78
1335.00	7433.54
1336.00	6695.49
1337.00	5253.72
1338.00	3735.50
1339.00	2431.82
1340.00	1526.03
1341.00	1050.90
1342.00	773.94
1343.00	668.61
1344.00	614.78
1345.00	638.19
1346.00	645.21
1347.00	653.01
1348.00	649.11
1349.00	661.59
1350.00	667.83
1351.00	682.66
1352.00	688.12
1353.00	688.12
1354.00	693.58
1355.00	711.52
1356.00	748.19
1357.00	838.69
1358.00	1440.21
1359.00	3468.67
1360.00	7629.37
1361.00	13967.54
1362.00	20263.58
1363.00	23832.11
1364.00	22848.31
1365.00	18902.17
1366.00	13491.63
1367.00	8804.32
1368.00	5049.32
1369.00	2961.56
1370.00	1884.13
1371.00	1483.12
1372.00	2175.92
1373.00	5516.64
1374.00	12936.14
1375.00	24278.38
1376.00	35500.47
1377.00	41989.21
1378.00	40854.83
1379.00	34353.60
1380.00	24874.43
1381.00	16109.91
1382.00	9019.64
1383.00	4922.15
1384.00	2701.76
1385.00	1666.46
1386.00	1150.76
1387.00	982.24
1388.00	901.11
1389.00	899.55
1390.00	867.56
1391.00	844.93
1392.00	826.99
1393.00	806.70
1394.00	873.80
1395.00	1030.62
1396.00	1335.67
1397.00	1659.44
1398.00	1873.99
1399.00	1902.86
1400.00	1797.53
1401.00	1682.06
1402.00	2160.31
1403.00	5660.98
1404.00	14779.70
1405.00	30642.29
1406.00	46453.39
1407.00	57124.67
1408.00	58817.66
1409.00	54510.30
1410.00	44591.11
1411.00	31628.44
1412.00	19019.97
1413.00	10177.43
1414.00	5375.43
1415.00	3065.32
1416.00	2430.26
1417.00	3615.35
1418.00	6490.31
1419.00	11027.82
1420.00	15247.81
1421.00	17412.03
1422.00	16347.86
1423.00	13326.23
1424.00	9642.23
1425.00	6365.48
1426.00	3801.03
1427.00	2229.75
1428.00	1442.55
1429.00	1052.46
1430.00	914.37
1431.00	850.39
1432.00	832.45
1433.00	821.53
1434.00	795.00
1435.00	745.85
1436.00	720.10
1437.00	688.12
1438.00	657.69
1439.00	602.30
1440.00	578.89
1441.00	592.94
1442.00	603.86
1443.00	596.06
1444.00	582.79
1445.00	574.99
1446.00	613.22
1447.00	629.60
1448.00	673.29
1449.00	692.80
1450.00	780.18
1451.00	1055.58
1452.00	1923.14
1453.00	3628.61
1454.00	6259.37
1455.00	8770.77
1456.00	10195.37
1457.00	9832.59
1458.00	8396.28
1459.00	6303.06
1460.00	4310.49
1461.00	2620.62
1462.00	1629.79
1463.00	1102.39
1464.00	831.67
1465.00	699.82
1466.00	655.35
1467.00	649.11
1468.00	639.75
1469.00	638.97
1470.00	594.50
1471.00	587.47
1472.00	570.31
1473.00	588.25
1474.00	605.42
1475.00	613.22
1476.00	650.67
1477.00	644.43
1478.00	658.47
1479.00	656.13
1480.00	685.00
1481.00	723.23
1482.00	784.86
1483.00	1192.11
1484.00	3055.96
1485.00	7633.27
1486.00	15785.35
1487.00	25614.82
1488.00	33271.50
1489.00	35264.85
1490.00	31720.50
1491.00	24865.07
1492.00	17263.79
1493.00	10584.68
1494.00	5814.67
1495.00	3145.68
1496.00	1788.95
1497.00	1167.15
1498.00	903.45
1499.00	757.55
1500.00	695.92
1501.00	649.89
1502.00	628.04
1503.00	628.04
1504.00	638.97
1505.00	662.37
1506.00	651.45
1507.00	662.37
1508.00	702.94
1509.00	983.81
1510.00	1728.10
1511.00	3232.28
1512.00	5429.26
1513.00	7552.91
1514.00	8681.83
1515.00	8386.14
1516.00	7151.90
1517.00	5476.07
1518.00	3803.37
1519.00	2418.55
1520.00	1554.12
1521.00	1103.95
1522.00	866.00
1523.00	746.63
1524.00	705.28
1525.00	698.26
1526.00	730.25
1527.00	816.85
1528.00	1042.32
1529.00	2041.73
1530.00	4664.69
1531.00	9444.84
1532.00	15915.64
1533.00	21401.86
1534.00	23692.46
1535.00	21924.58
1536.00	17930.84
1537.00	13025.86
1538.00	8541.40
1539.00	4975.98
1540.00	2854.67
1541.00	1699.23
1542.00	1161.69
1543.00	885.50
1544.00	802.80
1545.00	721.67
1546.00	734.93
1547.00	735.71
1548.00	720.10
1549.00	702.94
1550.00	695.14
1551.00	695.14
1552.00	709.96
1553.00	718.54
1554.00	754.43
1555.00	773.94
1556.00	784.86
1557.00	779.40
1558.00	819.19
1559.00	886.28
1560.00	1000.97
1561.00	1742.92
1562.00	4645.18
1563.00	11170.60
1564.00	21852.02
1565.00	33625.70
1566.00	42006.37
1567.00	43387.29
1568.00	38942.61
1569.00	30810.03
1570.00	21784.15
1571.00	13440.92
1572.00	7540.43
1573.00	4391.63
1574.00	3860.32
1575.00	7650.43
1576.00	17266.13
1577.00	32845.52
1578.00	47586.21
1579.00	57059.14
1580.00	58266.08
1581.00	54355.82
1582.00	45197.30
1583.00	32907.93
1584.00	20290.10
1585.00	11145.63
1586.00	5921.56
1587.00	3254.90
1588.00	1952.79
1589.00	1331.76
1590.00	1085.23
1591.00	932.31
1592.00	854.30
1593.00	752.09
1594.00	745.07
1595.00	692.02
1596.00	685.78
1597.00	652.23
1598.00	650.67
1599.00	647.55
1600.00	621.80
1601.00	617.12
1602.00	596.84
1603.00	601.52
1604.00	576.55
1605.00	574.99
1606.00	596.84
1607.00	618.68
1608.00	605.42
1609.00	596.06
1610.00	608.54
1611.00	621.80
1612.00	628.04
1613.00	612.44
1614.00	610.88
1615.00	575.77
1616.00	567.97
1617.00	526.62
1618.00	547.69
1619.00	541.44
1620.00	594.50
1621.00	598.40
1622.00	607.76
1623.00	595.28
1624.00	592.94
1625.00	599.96
1626.00	615.56
1627.00	599.18
1628.00	610.10
1629.00	592.16
1630.00	605.42
1631.00	588.25
1632.00	559.39
1633.00	546.12
1634.00	543.78
1635.00	597.62
1636.00	621.02
1637.00	636.63
1638.00	634.29
1639.00	637.41
1640.00	639.75
1641.00	664.71
1642.00	681.10
1643.00	713.08
1644.00	795.00
1645.00	1365.31
1646.00	3516.26
1647.00	8125.56
1648.00	15979.62
1649.00	25177.14
1650.00	32624.73
1651.00	34859.16
1652.00	32057.54
1653.00	26042.36
1654.00	18908.41
1655.00	12198.87
1656.00	6938.13
1657.00	3846.28
1658.00	2185.28
1659.00	1405.88
1660.00	1027.50
1661.00	851.95
1662.00	795.78
1663.00	879.26
1664.00	1480.78
1665.00	2860.13
1666.00	5234.22
1667.00	8243.37
1668.00	10978.67
1669.00	12166.10
1670.00	11567.71
1671.00	9682.80
1672.00	7323.54
1673.00	5029.03
1674.00	3095.75
1675.00	1900.52
1676.00	1228.00
1677.00	902.67
1678.00	735.71
1679.00	638.19
1680.00	566.41
1681.00	503.22
1682.00	511.80
1683.00	514.92
1684.00	531.30
1685.00	511.02
1686.00	519.60
1687.00	528.18
1688.00	532.08
1689.00	496.19
1690.00	513.36
1691.00	493.85
1692.00	518.04
1693.00	509.46
1694.00	526.62
1695.00	542.22
1696.00	540.66
1697.00	538.32
1698.00	560.95
1699.00	579.67
1700.00	582.79
1701.00	539.88
1702.00	534.42
1703.00	557.05
1704.00	596.06
1705.00	592.94
1706.00	600.74
1707.00	585.13
1708.00	635.07
1709.00	887.84
1710.00	1895.83
1711.00	4056.15
1712.00	7683.20
1713.00	12113.83
1714.00	15736.98
1715.00	17194.36
1716.00	16056.86
1717.00	13426.09
1718.00	10038.56
1719.00	6793.79
1720.00	4177.08
1721.00	2478.63
1722.00	1575.18
1723.00	1059.48
1724.00	820.75
1725.00	663.93
1726.00	586.69
1727.00	535.20
1728.00	501.65
1729.00	492.29
1730.00	485.27
1731.00	520.38
1732.00	515.70
1733.00	504.00
1734.00	491.51
1735.00	488.39
1736.00	479.81
1737.00	462.65
1738.00	454.06
1739.00	478.25
1740.00	500.09
1741.00	511.02
1742.00	493.85
1743.00	493.07
1744.00	500.09
1745.00	533.64
1746.00	496.19
1747.00	489.17
1748.00	482.15
1749.00	540.66
1750.00	556.27
1751.00	572.65
1752.00	553.15
1753.00	546.12
1754.00	575.77
1755.00	588.25
1756.00	604.64
1757.00	564.07
1758.00	560.95
1759.00	551.59
1760.00	574.99
1761.00	605.42
1762.00	665.49
1763.00	731.03
1764.00	854.30
1765.00	1562.70
1766.00	3775.28
1767.00	8106.06
1768.00	15083.19
1769.00	22808.52
1770.00	28921.22
1771.00	30423.84
1772.00	27965.50
1773.00	22700.08
1774.00	16669.30
1775.00	10902.22
1776.00	6515.27
1777.00	3776.84
1778.00	2246.91
1779.00	1436.31
1780.00	1059.48
1781.00	816.85
1782.00	719.32
1783.00	675.63
1784.00	663.15
1785.00	659.25
1786.00	624.92
1787.00	615.56
1788.00	602.30
1789.00	610.10
1790.00	616.34
1791.00	628.04
1792.00	785.64
1793.00	1554.90
1794.00	3446.83
1795.00	6847.63
1796.00	11563.03
1797.00	16073.24
1798.00	18726.63
1799.00	18474.63
1800.00	16110.69
1801.00	12556.97
1802.00	8902.62
1803.00	5694.52
1804.00	3410.94
1805.00	2038.61
1806.00	1291.98
1807.00	954.94
1808.00	763.01
1809.00	651.45
1810.00	589.03
1811.00	562.51
1812.00	564.85
1813.00	567.97
1814.00	557.83
1815.00	518.82
1816.00	532.86
1817.00	546.91
1818.00	566.41
1819.00	536.76
1820.00	529.74
1821.00	560.17
1822.00	607.76
1823.00	651.45
1824.00	681.10
1825.00	689.68
1826.00	667.05
1827.00	632.72
1828.00	594.50
1829.00	545.34
1830.00	504.00
1831.00	440.02
1832.00	450.16
1833.00	451.72
1834.00	474.35
1835.00	481.37
1836.00	486.05
1837.00	502.43
1838.00	486.05
1839.00	486.83
1840.00	465.77
1841.00	445.48
1842.00	441.58
1843.00	469.67
1844.00	474.35
1845.00	437.68
1846.00	406.47
1847.00	422.08
1848.00	454.06
1849.00	458.75
1850.00	443.14
1851.00	440.80
1852.00	457.96
1853.00	482.15
1854.00	468.89
1855.00	453.28
1856.00	444.70
1857.00	443.14
1858.00	417.40
1859.00	398.67
1860.00	404.91
1861.00	434.56
1862.00	443.14
1863.00	454.06
1864.00	444.70
1865.00	444.70
1866.00	425.98
1867.00	423.64
1868.00	415.84
1869.00	425.20
1870.00	435.34
1871.00	445.48
1872.00	442.36
1873.00	415.84
1874.00	428.32
1875.00	425.20
1876.00	429.88
1877.00	415.06
1878.00	436.12
1879.00	457.18
1880.00	466.55
1881.00	463.43
1882.00	460.31
1883.00	472.79
1884.00	468.11
1885.00	468.89
1886.00	451.72
1887.00	450.94
1888.00	463.43
1889.00	475.91
1890.00	500.09
1891.00	486.05
1892.00	467.33
1893.00	425.98
1894.00	401.79
1895.00	412.71
1896.00	429.88
1897.00	453.28
1898.00	433.78
1899.00	435.34
1900.00	448.60
1901.00	455.62
1902.00	456.40
1903.00	459.53
1904.00	478.25
1905.00	482.15
1906.00	509.46
1907.00	550.81
1908.00	605.42
1909.00	650.67
1910.00	656.13
1911.00	644.43
1912.00	601.52
1913.00	579.67
1914.00	546.12
1915.00	517.26
1916.00	511.02
1917.00	501.65
1918.00	493.07
1919.00	472.01
1920.00	478.25
1921.00	501.65
1922.00	478.25
1923.00	461.87
1924.00	447.82
1925.00	456.40
1926.00	439.24
1927.00	429.10
1928.00	449.38
1929.00	467.33
1930.00	446.26
1931.00	411.93
1932.00	411.15
1933.00	429.10
1934.00	454.84
1935.00	490.73
1936.00	498.53
1937.00	507.12
1938.00	475.13
1939.00	454.84
1940.00	450.16
1941.00	439.24
1942.00	478.25
1943.00	506.34
1944.00	535.98
1945.00	559.39
1946.00	610.88
1947.00	968.20
1948.00	2031.58
1949.00	4091.26
1950.00	7183.10
1951.00	10679.86
1952.00	13452.62
1953.00	14516.00
1954.00	13665.61
1955.00	11793.96
1956.00	9327.82
1957.00	6956.07
1958.00	4802.00
1959.00	3241.64
1960.00	2119.75
1961.00	1388.72
1962.00	993.17
1963.00	775.50
1964.00	660.81
1965.00	586.69
1966.00	580.45
1967.00	578.11
1968.00	564.07
1969.00	534.42
1970.00	514.14
1971.00	496.19
1972.00	511.80
1973.00	498.53
1974.00	539.10
1975.00	606.98
1976.00	742.73
1977.00	913.59
1978.00	1110.19
1979.00	1252.19
1980.00	1306.02
1981.00	1216.30
1982.00	1095.37
1983.00	973.66
1984.00	872.24
1985.00	741.95
1986.00	617.90
1987.00	567.19
1988.00	550.81
1989.00	535.20
1990.00	479.81
1991.00	469.67
1992.00	450.16
1993.00	448.60
1994.00	464.99
1995.00	489.17
1996.00	502.44
1997.00	458.75
1998.00	476.69
1999.00	464.21
2000.00	488.39
2001.00	525.84
2002.00	581.23
2003.00	571.09
2004.00	512.58
2005.00	475.91
2006.00	512.58
2007.00	511.80
2008.00	503.22
2009.00	480.59
2010.00	489.17
2011.00	532.86
2012.00	528.96
2013.00	548.47
2014.00	525.84
2015.00	531.30
2016.00	516.48
2017.00	527.40
2018.00	565.63
2019.00	645.21
2020.00	797.34
2021.00	951.04
2022.00	1142.18
2023.00	1341.13
2024.00	1896.61
2025.00	3430.45
2026.00	6649.46
2027.00	11793.18
2028.00	18605.70
2029.00	25132.67
2030.00	29482.95
2031.00	30078.22
2032.00	27829.75
2033.00	23842.26
2034.00	18923.23
2035.00	13902.00
2036.00	9491.65
2037.00	6228.95
2038.00	3975.01
2039.00	2463.02
2040.00	1624.33
2041.00	1143.74
2042.00	873.80
2043.00	724.01
2044.00	663.15
2045.00	663.15
2046.00	649.89
2047.00	603.86
>>>>>End Processed Spectral Data<<<<<
