SpectraSuite Data File
++++++++++++++++++++++++++++++++++++
Date: Thu Nov 16 13:55:20 EST 2017
User: cheriyan
Dark Spectrum Present: No
Reference Spectrum Present: No
Number of Sampled Component Spectra: 1
Spectrometers: USB2+H05261
Integration Time (usec): 100000 (USB2+H05261)
Spectra Averaged: 1 (USB2+H05261)
Boxcar Smoothing: 1 (USB2+H05261)
Correct for Electrical Dark: No (USB2+H05261)
Strobe/Lamp Enabled: No (USB2+H05261)
Correct for Detector Non-linearity: No (USB2+H05261)
Correct for Stray Light: No (USB2+H05261)
Number of Pixels in Processed Spectrum: 2048
>>>>>Begin Processed Spectral Data<<<<<
0.00	425.98
1.00	425.98
2.00	365.12
3.00	294.13
4.00	215.33
5.00	213.77
6.00	202.07
7.00	220.01
8.00	226.25
9.00	252.78
10.00	273.84
11.00	256.68
12.00	253.56
13.00	229.37
14.00	223.13
15.00	214.55
16.00	213.77
17.00	237.17
18.00	234.83
19.00	265.26
20.00	267.60
21.00	283.20
22.00	273.84
23.00	266.82
24.00	280.86
25.00	306.61
26.00	344.06
27.00	354.98
28.00	344.84
29.00	365.90
30.00	372.15
31.00	373.71
32.00	342.50
33.00	321.43
34.00	338.60
35.00	377.61
36.00	415.84
37.00	422.08
38.00	435.34
39.00	437.68
40.00	420.52
41.00	397.89
42.00	403.35
43.00	400.23
44.00	425.20
45.00	413.49
46.00	419.74
47.00	390.09
48.00	395.55
49.00	411.93
50.00	419.74
51.00	411.15
52.00	433.00
53.00	443.14
54.00	446.26
55.00	433.78
56.00	413.49
57.00	419.74
58.00	390.87
59.00	391.65
60.00	392.43
61.00	397.89
62.00	406.47
63.00	422.86
64.00	419.74
65.00	430.66
66.00	430.66
67.00	426.76
68.00	405.69
69.00	373.71
70.00	393.99
71.00	414.27
72.00	414.27
73.00	391.65
74.00	369.80
75.00	376.83
76.00	370.58
77.00	356.54
78.00	351.08
79.00	403.35
80.00	411.93
81.00	435.34
82.00	389.31
83.00	381.51
84.00	353.42
85.00	372.15
86.00	390.09
87.00	411.93
88.00	417.40
89.00	410.37
90.00	408.03
91.00	394.77
92.00	392.43
93.00	391.65
94.00	402.57
95.00	401.01
96.00	417.40
97.00	412.71
98.00	424.42
99.00	404.91
100.00	407.25
101.00	394.77
102.00	397.89
103.00	418.96
104.00	440.80
105.00	421.30
106.00	418.18
107.00	401.01
108.00	423.64
109.00	386.97
110.00	371.36
111.00	365.12
112.00	370.58
113.00	400.23
114.00	381.51
115.00	387.75
116.00	378.39
117.00	386.97
118.00	374.49
119.00	376.05
120.00	377.61
121.00	400.23
122.00	405.69
123.00	411.15
124.00	415.84
125.00	422.86
126.00	419.74
127.00	422.08
128.00	410.37
129.00	421.30
130.00	400.23
131.00	419.74
132.00	393.21
133.00	378.39
134.00	356.54
135.00	377.61
136.00	398.67
137.00	386.97
138.00	404.13
139.00	419.74
140.00	427.54
141.00	374.49
142.00	376.83
143.00	417.40
144.00	452.50
145.00	464.99
146.00	466.55
147.00	512.58
148.00	520.38
149.00	486.83
150.00	448.60
151.00	412.71
152.00	413.49
153.00	386.97
154.00	389.31
155.00	398.67
156.00	436.12
157.00	426.76
158.00	427.54
159.00	392.43
160.00	388.53
161.00	375.27
162.00	397.89
163.00	410.37
164.00	403.35
165.00	395.55
166.00	388.53
167.00	365.90
168.00	370.58
169.00	365.90
170.00	397.89
171.00	412.71
172.00	433.00
173.00	443.92
174.00	443.92
175.00	437.68
176.00	415.06
177.00	394.77
178.00	396.33
179.00	435.34
180.00	439.24
181.00	432.22
182.00	425.20
183.00	414.27
184.00	415.06
185.00	404.91
186.00	422.86
187.00	425.20
188.00	415.06
189.00	418.96
190.00	416.62
191.00	408.03
192.00	401.01
193.00	414.27
194.00	464.21
195.00	489.17
196.00	514.14
197.00	498.53
198.00	507.12
199.00	516.48
200.00	506.34
201.00	510.24
202.00	489.17
203.00	489.17
204.00	436.90
205.00	436.90
206.00	433.78
207.00	462.65
208.00	446.26
209.00	427.54
210.00	411.93
211.00	396.33
212.00	411.15
213.00	411.15
214.00	416.62
215.00	402.57
216.00	422.08
217.00	426.76
218.00	443.92
219.00	408.03
220.00	405.69
221.00	389.31
222.00	395.55
223.00	398.67
224.00	396.33
225.00	398.67
226.00	394.77
227.00	397.89
228.00	403.35
229.00	401.79
230.00	430.66
231.00	424.42
232.00	417.40
233.00	394.77
234.00	418.96
235.00	436.90
236.00	454.06
237.00	444.70
238.00	423.64
239.00	397.89
240.00	371.36
241.00	393.21
242.00	405.69
243.00	397.89
244.00	390.87
245.00	390.87
246.00	429.88
247.00	435.34
248.00	448.60
249.00	427.54
250.00	422.86
251.00	411.15
252.00	449.38
253.00	481.37
254.00	504.78
255.00	513.36
256.00	492.29
257.00	465.77
258.00	425.98
259.00	411.93
260.00	428.32
261.00	444.70
262.00	429.10
263.00	409.59
264.00	400.23
265.00	432.22
266.00	455.62
267.00	518.04
268.00	556.27
269.00	563.29
270.00	535.98
271.00	558.61
272.00	599.96
273.00	630.38
274.00	603.86
275.00	589.81
276.00	580.45
277.00	582.79
278.00	546.91
279.00	507.90
280.00	451.72
281.00	436.90
282.00	429.88
283.00	425.98
284.00	418.96
285.00	407.25
286.00	401.79
287.00	415.06
288.00	421.30
289.00	442.36
290.00	429.88
291.00	448.60
292.00	436.90
293.00	444.70
294.00	421.30
295.00	408.81
296.00	364.34
297.00	376.05
298.00	398.67
299.00	454.06
300.00	423.64
301.00	406.47
302.00	390.09
303.00	396.33
304.00	411.15
305.00	415.84
306.00	460.31
307.00	548.47
308.00	624.14
309.00	656.13
310.00	640.53
311.00	609.32
312.00	555.49
313.00	486.83
314.00	428.32
315.00	430.66
316.00	457.96
317.00	483.71
318.00	454.06
319.00	418.18
320.00	388.53
321.00	382.29
322.00	369.02
323.00	386.19
324.00	397.11
325.00	393.21
326.00	369.02
327.00	398.67
328.00	441.58
329.00	457.18
330.00	443.92
331.00	429.10
332.00	443.14
333.00	415.84
334.00	401.79
335.00	397.11
336.00	403.35
337.00	389.31
338.00	404.13
339.00	431.44
340.00	455.62
341.00	444.70
342.00	432.22
343.00	420.52
344.00	443.92
345.00	475.13
346.00	529.74
347.00	615.56
348.00	714.64
349.00	800.46
350.00	737.27
351.00	653.79
352.00	553.15
353.00	534.42
354.00	521.94
355.00	526.62
356.00	532.86
357.00	513.36
358.00	468.89
359.00	423.64
360.00	412.71
361.00	436.90
362.00	462.65
363.00	481.37
364.00	446.26
365.00	427.54
366.00	422.08
367.00	437.68
368.00	447.82
369.00	431.44
370.00	451.72
371.00	440.80
372.00	437.68
373.00	441.58
374.00	448.60
375.00	449.38
376.00	423.64
377.00	391.65
378.00	381.51
379.00	379.17
380.00	403.35
381.00	423.64
382.00	455.62
383.00	451.72
384.00	442.36
385.00	430.66
386.00	450.94
387.00	436.90
388.00	429.10
389.00	405.69
390.00	394.77
391.00	363.56
392.00	366.68
393.00	400.23
394.00	422.86
395.00	454.84
396.00	461.87
397.00	467.33
398.00	446.26
399.00	414.27
400.00	378.39
401.00	354.20
402.00	381.51
403.00	418.96
404.00	457.18
405.00	450.16
406.00	432.22
407.00	408.81
408.00	406.47
409.00	421.30
410.00	416.62
411.00	430.66
412.00	412.71
413.00	417.40
414.00	404.91
415.00	414.27
416.00	412.71
417.00	382.29
418.00	389.31
419.00	383.07
420.00	404.13
421.00	408.03
422.00	425.20
423.00	443.14
424.00	429.10
425.00	428.32
426.00	419.74
427.00	436.90
428.00	424.42
429.00	427.54
430.00	401.79
431.00	411.93
432.00	401.79
433.00	427.54
434.00	409.59
435.00	426.76
436.00	408.81
437.00	429.10
438.00	406.47
439.00	425.98
440.00	420.52
441.00	429.88
442.00	456.40
443.00	466.55
444.00	461.87
445.00	427.54
446.00	409.59
447.00	412.71
448.00	416.62
449.00	436.90
450.00	458.74
451.00	454.06
452.00	432.22
453.00	435.34
454.00	423.64
455.00	431.44
456.00	395.55
457.00	414.27
458.00	386.19
459.00	379.17
460.00	386.97
461.00	411.15
462.00	433.78
463.00	403.35
464.00	410.37
465.00	411.93
466.00	434.56
467.00	432.22
468.00	435.34
469.00	422.08
470.00	440.02
471.00	432.22
472.00	433.00
473.00	388.53
474.00	383.85
475.00	395.55
476.00	420.52
477.00	420.52
478.00	421.30
479.00	417.40
480.00	432.22
481.00	425.20
482.00	428.32
483.00	418.18
484.00	411.93
485.00	414.27
486.00	405.69
487.00	414.27
488.00	410.37
489.00	427.54
490.00	422.08
491.00	421.30
492.00	422.86
493.00	426.76
494.00	460.31
495.00	449.38
496.00	429.88
497.00	405.69
498.00	410.37
499.00	411.93
500.00	408.03
501.00	416.62
502.00	450.94
503.00	447.04
504.00	424.42
505.00	424.42
506.00	431.44
507.00	437.68
508.00	426.76
509.00	403.35
510.00	409.59
511.00	408.03
512.00	422.86
513.00	415.84
514.00	415.84
515.00	408.81
516.00	402.57
517.00	384.63
518.00	407.25
519.00	415.06
520.00	442.36
521.00	418.18
522.00	413.49
523.00	395.55
524.00	412.71
525.00	428.32
526.00	430.66
527.00	421.30
528.00	408.81
529.00	407.25
530.00	430.66
531.00	463.43
532.00	493.07
533.00	461.87
534.00	429.10
535.00	416.62
536.00	405.69
537.00	395.55
538.00	376.83
539.00	404.91
540.00	427.54
541.00	423.64
542.00	436.90
543.00	432.22
544.00	447.04
545.00	417.40
546.00	415.84
547.00	395.55
548.00	423.64
549.00	447.04
550.00	489.17
551.00	478.25
552.00	473.57
553.00	423.64
554.00	404.13
555.00	398.67
556.00	434.56
557.00	450.94
558.00	448.60
559.00	426.76
560.00	413.49
561.00	380.73
562.00	380.73
563.00	382.29
564.00	395.55
565.00	387.75
566.00	418.18
567.00	459.53
568.00	482.15
569.00	475.91
570.00	422.08
571.00	422.86
572.00	425.98
573.00	472.01
574.00	467.33
575.00	462.65
576.00	455.62
577.00	464.99
578.00	450.94
579.00	427.54
580.00	437.68
581.00	447.04
582.00	464.99
583.00	472.01
584.00	466.55
585.00	451.72
586.00	443.14
587.00	436.90
588.00	438.46
589.00	410.37
590.00	410.37
591.00	429.10
592.00	443.92
593.00	441.58
594.00	443.14
595.00	453.28
596.00	469.67
597.00	448.60
598.00	438.46
599.00	426.76
600.00	449.38
601.00	461.87
602.00	450.16
603.00	415.84
604.00	392.43
605.00	406.47
606.00	441.58
607.00	486.83
608.00	497.75
609.00	489.95
610.00	449.38
611.00	433.78
612.00	395.55
613.00	400.23
614.00	390.09
615.00	431.44
616.00	422.86
617.00	443.14
618.00	411.93
619.00	415.84
620.00	426.76
621.00	443.92
622.00	449.38
623.00	447.82
624.00	433.78
625.00	433.78
626.00	440.02
627.00	433.78
628.00	419.74
629.00	415.06
630.00	418.18
631.00	445.48
632.00	419.74
633.00	437.68
634.00	424.42
635.00	418.96
636.00	436.12
637.00	433.00
638.00	447.04
639.00	430.66
640.00	438.46
641.00	448.60
642.00	463.43
643.00	454.84
644.00	448.60
645.00	429.10
646.00	441.58
647.00	425.20
648.00	431.44
649.00	434.56
650.00	439.24
651.00	433.78
652.00	448.60
653.00	443.92
654.00	487.61
655.00	476.69
656.00	509.46
657.00	470.45
658.00	455.62
659.00	451.72
660.00	441.58
661.00	434.56
662.00	431.44
663.00	437.68
664.00	429.88
665.00	393.21
666.00	390.87
667.00	408.03
668.00	436.12
669.00	439.24
670.00	448.60
671.00	441.58
672.00	438.46
673.00	441.58
674.00	450.94
675.00	422.86
676.00	397.89
677.00	385.41
678.00	416.62
679.00	450.94
680.00	443.92
681.00	447.04
682.00	403.35
683.00	401.01
684.00	398.67
685.00	397.89
686.00	415.06
687.00	412.71
688.00	408.81
689.00	399.45
690.00	391.65
691.00	406.47
692.00	397.11
693.00	426.76
694.00	404.91
695.00	400.23
696.00	387.75
697.00	418.96
698.00	420.52
699.00	413.49
700.00	415.84
701.00	420.52
702.00	401.01
703.00	383.07
704.00	390.87
705.00	397.11
706.00	426.76
707.00	429.88
708.00	431.44
709.00	409.59
710.00	401.79
711.00	395.55
712.00	411.93
713.00	401.01
714.00	429.88
715.00	428.32
716.00	460.31
717.00	445.48
718.00	471.23
719.00	468.11
720.00	488.39
721.00	450.94
722.00	442.36
723.00	444.70
724.00	458.74
725.00	446.26
726.00	397.89
727.00	368.24
728.00	388.53
729.00	407.25
730.00	406.47
731.00	411.93
732.00	436.12
733.00	482.15
734.00	474.35
735.00	474.35
736.00	459.53
737.00	499.31
738.00	511.80
739.00	507.12
740.00	471.23
741.00	445.48
742.00	426.76
743.00	429.88
744.00	434.56
745.00	460.31
746.00	457.96
747.00	440.80
748.00	417.40
749.00	397.89
750.00	400.23
751.00	394.77
752.00	412.71
753.00	424.42
754.00	446.26
755.00	458.75
756.00	436.90
757.00	432.22
758.00	412.71
759.00	440.02
760.00	440.80
761.00	462.65
762.00	464.21
763.00	462.65
764.00	464.99
765.00	473.57
766.00	501.65
767.00	491.51
768.00	475.13
769.00	448.60
770.00	441.58
771.00	443.14
772.00	456.40
773.00	458.74
774.00	473.57
775.00	454.84
776.00	457.18
777.00	436.90
778.00	466.55
779.00	482.15
780.00	537.54
781.00	542.22
782.00	550.81
783.00	586.69
784.00	592.16
785.00	574.99
786.00	481.37
787.00	420.52
788.00	404.91
789.00	383.85
790.00	405.69
791.00	410.37
792.00	446.26
793.00	454.06
794.00	444.70
795.00	416.62
796.00	397.11
797.00	411.93
798.00	441.58
799.00	477.47
800.00	471.23
801.00	464.21
802.00	465.77
803.00	488.39
804.00	494.63
805.00	500.09
806.00	486.05
807.00	455.62
808.00	425.20
809.00	418.18
810.00	447.82
811.00	457.18
812.00	437.68
813.00	434.56
814.00	401.01
815.00	403.35
816.00	377.61
817.00	413.49
818.00	450.16
819.00	475.13
820.00	463.43
821.00	467.33
822.00	463.43
823.00	489.95
824.00	483.71
825.00	513.36
826.00	504.78
827.00	471.23
828.00	423.64
829.00	423.64
830.00	468.89
831.00	489.17
832.00	471.23
833.00	448.60
834.00	457.96
835.00	475.91
836.00	485.27
837.00	474.35
838.00	454.84
839.00	402.57
840.00	403.35
841.00	423.64
842.00	454.84
843.00	447.04
844.00	479.03
845.00	496.97
846.00	505.56
847.00	436.12
848.00	433.78
849.00	436.12
850.00	477.47
851.00	462.65
852.00	457.96
853.00	423.64
854.00	410.37
855.00	372.15
856.00	362.00
857.00	382.29
858.00	415.06
859.00	443.14
860.00	423.64
861.00	443.92
862.00	454.84
863.00	457.18
864.00	433.78
865.00	425.20
866.00	436.12
867.00	447.04
868.00	443.14
869.00	443.92
870.00	436.12
871.00	432.22
872.00	418.96
873.00	450.94
874.00	448.60
875.00	447.82
876.00	434.56
877.00	450.16
878.00	472.79
879.00	465.77
880.00	479.81
881.00	449.38
882.00	444.70
883.00	418.18
884.00	433.00
885.00	431.44
886.00	430.66
887.00	416.62
888.00	387.75
889.00	395.55
890.00	422.08
891.00	462.65
892.00	450.16
893.00	425.98
894.00	405.69
895.00	411.15
896.00	439.24
897.00	461.87
898.00	437.68
899.00	419.74
900.00	407.25
901.00	442.36
902.00	453.28
903.00	521.94
904.00	617.12
905.00	755.21
906.00	784.08
907.00	770.82
908.00	692.02
909.00	958.84
910.00	985.37
911.00	1078.99
912.00	837.13
913.00	842.59
914.00	794.22
915.00	750.53
916.00	652.23
917.00	581.23
918.00	493.07
919.00	462.65
920.00	425.20
921.00	407.25
922.00	414.27
923.00	410.37
924.00	470.45
925.00	464.21
926.00	489.17
927.00	470.45
928.00	461.87
929.00	462.65
930.00	462.65
931.00	472.79
932.00	449.38
933.00	431.44
934.00	440.02
935.00	458.74
936.00	466.55
937.00	457.96
938.00	472.79
939.00	461.87
940.00	466.55
941.00	445.48
942.00	492.29
943.00	637.41
944.00	1066.50
945.00	1889.59
946.00	2897.58
947.00	3664.50
948.00	3740.96
949.00	3208.09
950.00	2360.04
951.00	1602.49
952.00	1047.00
953.00	719.32
954.00	535.98
955.00	485.27
956.00	454.06
957.00	469.67
958.00	455.62
959.00	481.37
960.00	478.25
961.00	467.33
962.00	450.94
963.00	425.98
964.00	441.58
965.00	453.28
966.00	461.87
967.00	450.94
968.00	450.94
969.00	466.55
970.00	478.25
971.00	472.79
972.00	454.84
973.00	444.70
974.00	416.62
975.00	401.01
976.00	383.85
977.00	421.30
978.00	464.21
979.00	478.25
980.00	470.45
981.00	464.21
982.00	458.75
983.00	441.58
984.00	409.59
985.00	409.59
986.00	407.25
987.00	435.34
988.00	463.43
989.00	450.94
990.00	433.00
991.00	407.25
992.00	413.49
993.00	420.52
994.00	423.64
995.00	415.06
996.00	430.66
997.00	422.86
998.00	440.80
999.00	443.92
1000.00	453.28
1001.00	434.56
1002.00	439.24
1003.00	440.80
1004.00	468.89
1005.00	449.38
1006.00	469.67
1007.00	477.47
1008.00	464.21
1009.00	461.87
1010.00	478.25
1011.00	479.03
1012.00	505.56
1013.00	457.18
1014.00	466.55
1015.00	432.22
1016.00	464.21
1017.00	465.77
1018.00	451.72
1019.00	422.86
1020.00	409.59
1021.00	404.91
1022.00	421.30
1023.00	452.50
1024.00	459.53
1025.00	436.12
1026.00	423.64
1027.00	438.46
1028.00	454.84
1029.00	446.26
1030.00	459.53
1031.00	476.69
1032.00	464.21
1033.00	412.71
1034.00	395.55
1035.00	417.40
1036.00	466.55
1037.00	473.57
1038.00	464.99
1039.00	447.04
1040.00	454.84
1041.00	479.81
1042.00	508.68
1043.00	503.22
1044.00	509.46
1045.00	528.18
1046.00	539.88
1047.00	506.34
1048.00	472.01
1049.00	444.70
1050.00	436.12
1051.00	418.96
1052.00	426.76
1053.00	453.28
1054.00	475.91
1055.00	457.96
1056.00	438.46
1057.00	423.64
1058.00	429.88
1059.00	453.28
1060.00	445.48
1061.00	461.87
1062.00	467.33
1063.00	468.89
1064.00	468.89
1065.00	440.02
1066.00	413.49
1067.00	412.71
1068.00	406.47
1069.00	417.40
1070.00	425.98
1071.00	439.24
1072.00	448.60
1073.00	436.90
1074.00	430.66
1075.00	434.56
1076.00	417.40
1077.00	435.34
1078.00	448.60
1079.00	489.17
1080.00	471.23
1081.00	443.14
1082.00	422.08
1083.00	410.37
1084.00	424.42
1085.00	426.76
1086.00	458.75
1087.00	457.96
1088.00	452.50
1089.00	440.02
1090.00	443.92
1091.00	439.24
1092.00	457.96
1093.00	452.50
1094.00	464.99
1095.00	446.26
1096.00	448.60
1097.00	443.14
1098.00	461.09
1099.00	495.41
1100.00	540.66
1101.00	561.73
1102.00	579.67
1103.00	558.61
1104.00	533.64
1105.00	497.75
1106.00	480.59
1107.00	461.87
1108.00	426.76
1109.00	432.22
1110.00	434.56
1111.00	450.16
1112.00	443.92
1113.00	457.18
1114.00	481.37
1115.00	472.79
1116.00	475.91
1117.00	449.38
1118.00	450.94
1119.00	469.67
1120.00	501.65
1121.00	534.42
1122.00	534.42
1123.00	516.48
1124.00	482.15
1125.00	434.56
1126.00	438.46
1127.00	447.82
1128.00	463.43
1129.00	456.40
1130.00	445.48
1131.00	443.92
1132.00	450.16
1133.00	454.84
1134.00	465.77
1135.00	472.01
1136.00	479.81
1137.00	514.92
1138.00	533.64
1139.00	539.10
1140.00	516.48
1141.00	524.28
1142.00	535.20
1143.00	502.43
1144.00	484.49
1145.00	444.70
1146.00	453.28
1147.00	437.68
1148.00	450.94
1149.00	454.06
1150.00	457.18
1151.00	461.87
1152.00	468.11
1153.00	476.69
1154.00	504.78
1155.00	541.44
1156.00	632.72
1157.00	699.04
1158.00	743.51
1159.00	713.08
1160.00	665.49
1161.00	628.04
1162.00	571.09
1163.00	621.02
1164.00	744.29
1165.00	1041.54
1166.00	1379.36
1167.00	1653.98
1168.00	1710.15
1169.00	1568.16
1170.00	1324.74
1171.00	1072.75
1172.00	853.52
1173.00	700.60
1174.00	632.72
1175.00	617.90
1176.00	640.53
1177.00	633.50
1178.00	636.63
1179.00	600.74
1180.00	610.88
1181.00	606.20
1182.00	612.44
1183.00	596.06
1184.00	595.28
1185.00	638.19
1186.00	649.11
1187.00	666.27
1188.00	663.93
1189.00	731.81
1190.00	791.10
1191.00	872.24
1192.00	895.64
1193.00	898.77
1194.00	869.90
1195.00	851.95
1196.00	823.87
1197.00	816.07
1198.00	851.17
1199.00	983.02
1200.00	1185.87
1201.00	1389.50
1202.00	1494.04
1203.00	1480.78
1204.00	1397.30
1205.00	1298.22
1206.00	1206.16
1207.00	1137.50
1208.00	1110.97
1209.00	1122.68
1210.00	1177.29
1211.00	1225.66
1212.00	1340.35
1213.00	1471.42
1214.00	1722.63
1215.00	1970.73
1216.00	2491.11
1217.00	5687.50
1218.00	21254.40
1219.00	42030.56
1220.00	60009.78
1221.00	65535.00
1222.00	65535.00
1223.00	65535.00
1224.00	65535.00
1225.00	65357.90
1226.00	56157.25
1227.00	40558.36
1228.00	21937.06
1229.00	10839.80
1230.00	5532.25
1231.00	3198.73
1232.00	2283.58
1233.00	1883.35
1234.00	1698.45
1235.00	1638.38
1236.00	2094.78
1237.00	3773.72
1238.00	7079.34
1239.00	11582.53
1240.00	15249.37
1241.00	16272.18
1242.00	14567.49
1243.00	11265.78
1244.00	7845.48
1245.00	4886.26
1246.00	2864.82
1247.00	1756.18
1248.00	1217.08
1249.00	973.66
1250.00	927.63
1251.00	1012.67
1252.00	1125.80
1253.00	1222.54
1254.00	1276.37
1255.00	1238.92
1256.00	1181.19
1257.00	1101.61
1258.00	1076.65
1259.00	1025.93
1260.00	966.64
1261.00	889.40
1262.00	862.10
1263.00	869.12
1264.00	841.81
1265.00	809.83
1266.00	763.79
1267.00	773.16
1268.00	759.11
1269.00	736.49
1270.00	695.14
1271.00	735.71
1272.00	790.32
1273.00	828.55
1274.00	871.46
1275.00	1213.96
1276.00	2977.16
1277.00	7147.22
1278.00	14572.18
1279.00	22909.16
1280.00	28598.23
1281.00	28747.24
1282.00	24418.03
1283.00	17887.15
1284.00	11700.34
1285.00	6763.37
1286.00	3693.37
1287.00	2049.53
1288.00	1232.68
1289.00	938.55
1290.00	834.79
1291.00	855.86
1292.00	870.68
1293.00	917.49
1294.00	929.97
1295.00	1092.25
1296.00	1685.97
1297.00	2907.73
1298.00	4635.04
1299.00	6150.93
1300.00	6804.72
1301.00	6313.20
1302.00	5103.15
1303.00	3661.38
1304.00	2437.28
1305.00	1578.30
1306.00	1146.08
1307.00	952.60
1308.00	883.94
1309.00	825.43
1310.00	766.92
1311.00	689.68
1312.00	642.09
1313.00	613.22
1314.00	630.38
1315.00	622.58
1316.00	596.84
1317.00	544.56
1318.00	532.08
1319.00	578.11
1320.00	585.91
1321.00	596.06
1322.00	546.91
1323.00	528.18
1324.00	517.26
1325.00	536.76
1326.00	563.29
1327.00	554.71
1328.00	569.53
1329.00	643.65
1330.00	1022.03
1331.00	1942.64
1332.00	3564.64
1333.00	5444.09
1334.00	6966.21
1335.00	7326.66
1336.00	6644.00
1337.00	5286.49
1338.00	3779.97
1339.00	2509.83
1340.00	1551.78
1341.00	1070.40
1342.00	816.07
1343.00	706.06
1344.00	642.87
1345.00	642.87
1346.00	605.42
1347.00	624.14
1348.00	624.92
1349.00	667.05
1350.00	673.29
1351.00	659.25
1352.00	656.91
1353.00	674.07
1354.00	720.88
1355.00	763.79
1356.00	813.73
1357.00	886.28
1358.00	1454.25
1359.00	3495.20
1360.00	7690.22
1361.00	14195.35
1362.00	20574.87
1363.00	24132.48
1364.00	23005.13
1365.00	18905.29
1366.00	13506.45
1367.00	8828.50
1368.00	5074.28
1369.00	2936.59
1370.00	1834.98
1371.00	1440.99
1372.00	2156.41
1373.00	5487.78
1374.00	12745.78
1375.00	24131.70
1376.00	35540.25
1377.00	42231.07
1378.00	40916.47
1379.00	34281.83
1380.00	24815.14
1381.00	16172.32
1382.00	9035.25
1383.00	4895.62
1384.00	2704.88
1385.00	1708.59
1386.00	1224.88
1387.00	1005.65
1388.00	892.52
1389.00	834.79
1390.00	854.30
1391.00	863.66
1392.00	849.61
1393.00	836.35
1394.00	886.28
1395.00	1091.47
1396.00	1368.43
1397.00	1664.90
1398.00	1827.18
1399.00	1855.26
1400.00	1755.40
1401.00	1685.19
1402.00	2210.25
1403.00	5703.11
1404.00	14896.73
1405.00	30745.28
1406.00	46586.80
1407.00	57134.04
1408.00	58892.56
1409.00	54635.13
1410.00	44846.22
1411.00	31760.29
1412.00	19060.54
1413.00	10138.42
1414.00	5367.63
1415.00	3082.49
1416.00	2444.30
1417.00	3582.58
1418.00	6560.52
1419.00	11098.82
1420.00	15367.18
1421.00	17374.58
1422.00	16448.50
1423.00	13384.74
1424.00	9717.90
1425.00	6280.44
1426.00	3762.80
1427.00	2252.38
1428.00	1479.22
1429.00	1061.82
1430.00	875.36
1431.00	801.24
1432.00	802.02
1433.00	795.78
1434.00	777.06
1435.00	726.35
1436.00	706.06
1437.00	682.66
1438.00	670.17
1439.00	657.69
1440.00	646.77
1441.00	638.97
1442.00	642.87
1443.00	616.34
1444.00	597.62
1445.00	587.47
1446.00	585.13
1447.00	605.42
1448.00	621.02
1449.00	649.11
1450.00	695.92
1451.00	995.51
1452.00	1865.41
1453.00	3625.49
1454.00	6225.04
1455.00	8832.40
1456.00	10294.46
1457.00	10018.27
1458.00	8549.98
1459.00	6469.24
1460.00	4443.12
1461.00	2731.41
1462.00	1681.28
1463.00	1118.00
1464.00	841.81
1465.00	710.74
1466.00	649.11
1467.00	649.11
1468.00	638.19
1469.00	631.94
1470.00	586.69
1471.00	573.43
1472.00	578.11
1473.00	598.40
1474.00	613.22
1475.00	616.34
1476.00	628.82
1477.00	624.14
1478.00	643.65
1479.00	653.01
1480.00	695.14
1481.00	731.03
1482.00	824.65
1483.00	1218.64
1484.00	3107.45
1485.00	7651.21
1486.00	15865.71
1487.00	25583.62
1488.00	33206.74
1489.00	35320.24
1490.00	31811.78
1491.00	25052.31
1492.00	17303.58
1493.00	10626.81
1494.00	5836.52
1495.00	3165.96
1496.00	1870.09
1497.00	1242.82
1498.00	945.58
1499.00	773.16
1500.00	685.78
1501.00	649.89
1502.00	654.57
1503.00	636.63
1504.00	604.64
1505.00	610.88
1506.00	642.09
1507.00	689.68
1508.00	716.20
1509.00	948.70
1510.00	1726.54
1511.00	3298.60
1512.00	5508.06
1513.00	7599.72
1514.00	8713.81
1515.00	8374.44
1516.00	7129.27
1517.00	5399.62
1518.00	3798.69
1519.00	2406.07
1520.00	1526.81
1521.00	1081.33
1522.00	897.99
1523.00	806.70
1524.00	742.73
1525.00	692.80
1526.00	695.92
1527.00	766.14
1528.00	985.37
1529.00	2005.84
1530.00	4599.93
1531.00	9288.03
1532.00	15694.85
1533.00	21155.32
1534.00	23587.14
1535.00	22004.16
1536.00	18093.90
1537.00	13209.20
1538.00	8581.96
1539.00	4932.29
1540.00	2759.49
1541.00	1676.60
1542.00	1175.73
1543.00	904.23
1544.00	756.77
1545.00	696.70
1546.00	689.68
1547.00	698.26
1548.00	691.24
1549.00	692.80
1550.00	671.73
1551.00	653.01
1552.00	643.65
1553.00	683.44
1554.00	720.89
1555.00	754.43
1556.00	770.04
1557.00	767.70
1558.00	797.34
1559.00	834.01
1560.00	962.74
1561.00	1744.48
1562.00	4786.40
1563.00	11265.78
1564.00	21931.60
1565.00	33662.36
1566.00	42100.00
1567.00	43611.20
1568.00	38942.61
1569.00	30724.21
1570.00	21508.74
1571.00	13350.42
1572.00	7542.77
1573.00	4449.36
1574.00	3820.53
1575.00	7691.78
1576.00	17401.88
1577.00	33042.12
1578.00	47704.02
1579.00	57034.17
1580.00	58241.89
1581.00	54175.60
1582.00	45160.64
1583.00	32913.39
1584.00	20327.55
1585.00	11071.51
1586.00	5792.83
1587.00	3229.94
1588.00	1956.69
1589.00	1356.73
1590.00	1075.87
1591.00	926.85
1592.00	848.05
1593.00	777.84
1594.00	734.93
1595.00	704.50
1596.00	702.94
1597.00	681.88
1598.00	650.67
1599.00	646.77
1600.00	656.91
1601.00	644.43
1602.00	612.44
1603.00	578.89
1604.00	591.38
1605.00	585.91
1606.00	565.63
1607.00	553.15
1608.00	557.83
1609.00	566.41
1610.00	572.65
1611.00	582.79
1612.00	571.09
1613.00	540.66
1614.00	533.64
1615.00	553.15
1616.00	599.96
1617.00	592.16
1618.00	592.94
1619.00	576.55
1620.00	583.57
1621.00	589.03
1622.00	596.84
1623.00	574.99
1624.00	582.79
1625.00	555.49
1626.00	587.47
1627.00	590.60
1628.00	622.58
1629.00	599.96
1630.00	587.47
1631.00	574.99
1632.00	578.11
1633.00	578.11
1634.00	571.09
1635.00	587.47
1636.00	575.77
1637.00	580.45
1638.00	582.01
1639.00	615.56
1640.00	628.82
1641.00	645.21
1642.00	661.59
1643.00	709.96
1644.00	787.20
1645.00	1317.72
1646.00	3456.97
1647.00	8177.83
1648.00	16136.43
1649.00	25437.72
1650.00	32861.12
1651.00	34856.04
1652.00	31983.42
1653.00	25936.26
1654.00	19058.98
1655.00	12368.17
1656.00	7143.32
1657.00	3985.15
1658.00	2270.32
1659.00	1423.05
1660.00	995.51
1661.00	848.05
1662.00	771.60
1663.00	869.90
1664.00	1440.99
1665.00	2889.00
1666.00	5337.20
1667.00	8442.31
1668.00	11140.17
1669.00	12326.04
1670.00	11666.01
1671.00	9811.53
1672.00	7418.72
1673.00	5082.08
1674.00	3106.67
1675.00	1869.31
1676.00	1193.67
1677.00	862.88
1678.00	702.94
1679.00	631.94
1680.00	599.96
1681.00	571.87
1682.00	534.42
1683.00	508.68
1684.00	517.26
1685.00	516.48
1686.00	532.08
1687.00	498.53
1688.00	518.82
1689.00	495.41
1690.00	513.36
1691.00	510.24
1692.00	516.48
1693.00	518.82
1694.00	505.56
1695.00	506.34
1696.00	528.18
1697.00	546.12
1698.00	533.64
1699.00	514.92
1700.00	508.68
1701.00	535.20
1702.00	543.78
1703.00	573.43
1704.00	558.61
1705.00	558.61
1706.00	518.04
1707.00	557.05
1708.00	615.56
1709.00	901.11
1710.00	1885.69
1711.00	4116.22
1712.00	7717.53
1713.00	12134.90
1714.00	15720.60
1715.00	17252.09
1716.00	16228.49
1717.00	13554.04
1718.00	10189.91
1719.00	6853.87
1720.00	4256.65
1721.00	2498.91
1722.00	1593.90
1723.00	1062.60
1724.00	826.21
1725.00	669.39
1726.00	609.32
1727.00	555.49
1728.00	560.17
1729.00	531.30
1730.00	532.86
1731.00	498.53
1732.00	501.65
1733.00	523.50
1734.00	532.08
1735.00	544.56
1736.00	507.90
1737.00	506.34
1738.00	488.39
1739.00	473.57
1740.00	504.78
1741.00	500.87
1742.00	502.43
1743.00	481.37
1744.00	489.95
1745.00	515.70
1746.00	507.12
1747.00	523.50
1748.00	524.28
1749.00	546.12
1750.00	539.10
1751.00	581.23
1752.00	589.81
1753.00	594.50
1754.00	580.45
1755.00	572.65
1756.00	571.87
1757.00	549.25
1758.00	568.75
1759.00	572.65
1760.00	603.08
1761.00	599.96
1762.00	609.32
1763.00	670.95
1764.00	795.00
1765.00	1512.77
1766.00	3727.69
1767.00	8126.34
1768.00	15119.08
1769.00	22903.70
1770.00	28895.47
1771.00	30469.87
1772.00	28016.99
1773.00	22779.65
1774.00	16736.39
1775.00	10945.13
1776.00	6631.52
1777.00	3858.76
1778.00	2269.54
1779.00	1425.39
1780.00	1019.69
1781.00	808.26
1782.00	696.70
1783.00	637.41
1784.00	582.01
1785.00	590.60
1786.00	589.81
1787.00	610.88
1788.00	581.23
1789.00	609.32
1790.00	631.94
1791.00	660.03
1792.00	810.61
1793.00	1568.16
1794.00	3462.43
1795.00	6907.70
1796.00	11513.10
1797.00	16021.75
1798.00	18594.00
1799.00	18396.61
1800.00	16042.81
1801.00	12591.30
1802.00	8976.73
1803.00	5745.24
1804.00	3408.60
1805.00	2051.09
1806.00	1309.14
1807.00	942.46
1808.00	737.27
1809.00	625.70
1810.00	578.11
1811.00	554.71
1812.00	541.44
1813.00	528.96
1814.00	527.40
1815.00	480.59
1816.00	484.49
1817.00	464.99
1818.00	518.04
1819.00	520.38
1820.00	564.85
1821.00	583.57
1822.00	603.86
1823.00	651.45
1824.00	672.51
1825.00	703.72
1826.00	678.76
1827.00	648.33
1828.00	617.90
1829.00	570.31
1830.00	532.08
1831.00	470.45
1832.00	443.92
1833.00	436.90
1834.00	441.58
1835.00	464.21
1836.00	487.61
1837.00	506.34
1838.00	493.85
1839.00	479.03
1840.00	459.53
1841.00	461.87
1842.00	477.47
1843.00	479.03
1844.00	468.89
1845.00	443.14
1846.00	436.12
1847.00	439.24
1848.00	466.55
1849.00	475.13
1850.00	454.06
1851.00	435.34
1852.00	453.28
1853.00	472.79
1854.00	456.40
1855.00	450.16
1856.00	449.38
1857.00	450.94
1858.00	435.34
1859.00	437.68
1860.00	476.69
1861.00	498.53
1862.00	483.71
1863.00	449.38
1864.00	443.14
1865.00	438.46
1866.00	422.86
1867.00	394.77
1868.00	408.03
1869.00	434.56
1870.00	454.06
1871.00	438.46
1872.00	454.06
1873.00	455.62
1874.00	468.11
1875.00	445.48
1876.00	427.54
1877.00	428.32
1878.00	435.34
1879.00	455.62
1880.00	452.50
1881.00	456.40
1882.00	476.69
1883.00	464.21
1884.00	474.35
1885.00	454.84
1886.00	491.51
1887.00	468.11
1888.00	447.82
1889.00	439.24
1890.00	429.10
1891.00	447.04
1892.00	440.80
1893.00	456.40
1894.00	450.16
1895.00	418.18
1896.00	429.88
1897.00	419.74
1898.00	441.58
1899.00	438.46
1900.00	488.39
1901.00	488.39
1902.00	487.61
1903.00	440.02
1904.00	445.48
1905.00	440.80
1906.00	495.41
1907.00	536.76
1908.00	599.18
1909.00	624.14
1910.00	645.21
1911.00	604.64
1912.00	546.13
1913.00	521.94
1914.00	508.68
1915.00	521.94
1916.00	493.85
1917.00	491.51
1918.00	471.23
1919.00	456.40
1920.00	457.18
1921.00	459.53
1922.00	476.69
1923.00	473.57
1924.00	487.61
1925.00	474.35
1926.00	477.47
1927.00	443.92
1928.00	462.65
1929.00	488.39
1930.00	511.80
1931.00	500.87
1932.00	454.84
1933.00	452.50
1934.00	457.18
1935.00	474.35
1936.00	465.77
1937.00	476.69
1938.00	474.35
1939.00	490.73
1940.00	470.45
1941.00	483.71
1942.00	465.77
1943.00	485.27
1944.00	498.53
1945.00	557.83
1946.00	649.89
1947.00	1007.99
1948.00	2038.61
1949.00	4021.04
1950.00	7076.22
1951.00	10661.14
1952.00	13610.22
1953.00	14701.68
1954.00	13719.44
1955.00	11683.17
1956.00	9220.15
1957.00	6878.83
1958.00	4685.75
1959.00	3098.09
1960.00	2026.90
1961.00	1379.36
1962.00	986.15
1963.00	755.99
1964.00	646.77
1965.00	586.69
1966.00	567.97
1967.00	539.10
1968.00	547.69
1969.00	557.83
1970.00	515.70
1971.00	511.02
1972.00	498.53
1973.00	532.08
1974.00	544.56
1975.00	599.18
1976.00	733.37
1977.00	904.23
1978.00	1142.96
1979.00	1250.63
1980.00	1284.95
1981.00	1193.67
1982.00	1117.22
1983.00	1022.03
1984.00	891.74
1985.00	777.06
1986.00	653.01
1987.00	600.74
1988.00	539.10
1989.00	520.38
1990.00	493.85
1991.00	486.05
1992.00	477.47
1993.00	476.69
1994.00	468.11
1995.00	482.93
1996.00	473.57
1997.00	484.49
1998.00	491.51
1999.00	504.78
2000.00	526.62
2001.00	504.00
2002.00	509.46
2003.00	466.55
2004.00	444.70
2005.00	447.04
2006.00	440.80
2007.00	463.43
2008.00	435.34
2009.00	443.92
2010.00	436.12
2011.00	447.04
2012.00	484.49
2013.00	525.84
2014.00	558.61
2015.00	560.95
2016.00	571.09
2017.00	602.30
2018.00	634.29
2019.00	668.61
2020.00	743.51
2021.00	923.73
2022.00	1164.81
2023.00	1418.36
2024.00	1942.64
2025.00	3486.62
2026.00	6715.78
2027.00	11903.96
2028.00	18714.14
2029.00	25218.49
2030.00	29577.35
2031.00	30126.60
2032.00	28001.39
2033.00	23772.82
2034.00	18946.64
2035.00	13887.96
2036.00	9623.50
2037.00	6277.32
2038.00	3907.13
2039.00	2416.99
2040.00	1555.68
2041.00	1104.73
2042.00	886.28
2043.00	765.36
2044.00	698.26
2045.00	641.31
2046.00	636.63
2047.00	657.69
>>>>>End Processed Spectral Data<<<<<
