SpectraSuite Data File
++++++++++++++++++++++++++++++++++++
Date: Thu Nov 16 13:55:16 EST 2017
User: cheriyan
Dark Spectrum Present: No
Reference Spectrum Present: No
Number of Sampled Component Spectra: 1
Spectrometers: USB2+H05261
Integration Time (usec): 100000 (USB2+H05261)
Spectra Averaged: 1 (USB2+H05261)
Boxcar Smoothing: 1 (USB2+H05261)
Correct for Electrical Dark: No (USB2+H05261)
Strobe/Lamp Enabled: No (USB2+H05261)
Correct for Detector Non-linearity: No (USB2+H05261)
Correct for Stray Light: No (USB2+H05261)
Number of Pixels in Processed Spectrum: 2048
>>>>>Begin Processed Spectral Data<<<<<
0.00	353.42
1.00	353.42
2.00	349.52
3.00	317.53
4.00	291.01
5.00	243.42
6.00	255.12
7.00	249.66
8.00	276.18
9.00	272.28
10.00	283.98
11.00	247.32
12.00	230.93
13.00	206.75
14.00	230.93
15.00	222.35
16.00	241.86
17.00	254.34
18.00	262.92
19.00	287.11
20.00	276.18
21.00	285.55
22.00	259.80
23.00	308.95
24.00	337.04
25.00	361.22
26.00	334.70
27.00	345.62
28.00	351.08
29.00	393.21
30.00	408.03
31.00	406.47
32.00	371.36
33.00	352.64
34.00	361.22
35.00	388.53
36.00	399.45
37.00	418.18
38.00	415.06
39.00	386.97
40.00	379.17
41.00	393.21
42.00	411.15
43.00	389.31
44.00	385.41
45.00	392.43
46.00	436.12
47.00	440.02
48.00	461.87
49.00	433.78
50.00	426.76
51.00	398.67
52.00	425.20
53.00	427.54
54.00	447.82
55.00	443.92
56.00	447.82
57.00	446.26
58.00	425.20
59.00	399.45
60.00	381.51
61.00	383.07
62.00	397.89
63.00	406.47
64.00	377.61
65.00	375.27
66.00	373.71
67.00	409.59
68.00	400.23
69.00	407.25
70.00	415.06
71.00	433.78
72.00	397.89
73.00	385.41
74.00	376.83
75.00	425.20
76.00	427.54
77.00	423.64
78.00	425.98
79.00	416.62
80.00	391.65
81.00	359.66
82.00	358.10
83.00	388.53
84.00	415.06
85.00	413.49
86.00	397.89
87.00	383.85
88.00	395.55
89.00	398.67
90.00	411.15
91.00	388.53
92.00	390.09
93.00	380.73
94.00	392.43
95.00	393.99
96.00	396.33
97.00	415.06
98.00	404.13
99.00	431.44
100.00	413.49
101.00	429.10
102.00	399.45
103.00	391.65
104.00	387.75
105.00	402.57
106.00	418.96
107.00	418.96
108.00	417.40
109.00	430.66
110.00	440.02
111.00	406.47
112.00	374.49
113.00	378.39
114.00	387.75
115.00	406.47
116.00	400.23
117.00	404.91
118.00	415.06
119.00	421.30
120.00	418.18
121.00	397.89
122.00	385.41
123.00	372.15
124.00	359.66
125.00	363.56
126.00	362.78
127.00	369.02
128.00	359.66
129.00	370.58
130.00	375.27
131.00	398.67
132.00	393.99
133.00	425.20
134.00	407.25
135.00	435.34
136.00	440.80
137.00	454.06
138.00	432.22
139.00	408.03
140.00	416.62
141.00	425.98
142.00	459.53
143.00	459.53
144.00	479.03
145.00	458.75
146.00	453.28
147.00	453.28
148.00	450.16
149.00	432.22
150.00	397.89
151.00	390.09
152.00	400.23
153.00	429.10
154.00	442.36
155.00	425.98
156.00	440.02
157.00	431.44
158.00	437.68
159.00	399.45
160.00	387.75
161.00	390.87
162.00	407.25
163.00	425.98
164.00	433.78
165.00	410.37
166.00	391.65
167.00	396.33
168.00	418.96
169.00	411.15
170.00	390.87
171.00	384.63
172.00	397.89
173.00	410.37
174.00	414.27
175.00	411.15
176.00	430.66
177.00	442.36
178.00	447.82
179.00	440.80
180.00	439.24
181.00	444.70
182.00	440.80
183.00	407.25
184.00	417.40
185.00	401.01
186.00	398.67
187.00	395.55
188.00	415.06
189.00	436.90
190.00	424.42
191.00	419.74
192.00	429.88
193.00	454.84
194.00	454.06
195.00	502.44
196.00	515.70
197.00	534.42
198.00	521.94
199.00	489.17
200.00	477.47
201.00	411.15
202.00	385.41
203.00	359.66
204.00	369.80
205.00	397.11
206.00	413.49
207.00	415.84
208.00	412.71
209.00	398.67
210.00	413.49
211.00	417.40
212.00	436.90
213.00	418.18
214.00	401.01
215.00	401.01
216.00	437.68
217.00	449.38
218.00	440.02
219.00	422.86
220.00	420.52
221.00	402.57
222.00	396.33
223.00	405.69
224.00	415.84
225.00	427.54
226.00	402.57
227.00	392.43
228.00	362.78
229.00	369.02
230.00	386.19
231.00	418.96
232.00	443.14
233.00	468.89
234.00	459.53
235.00	445.48
236.00	402.57
237.00	400.23
238.00	379.95
239.00	402.57
240.00	379.17
241.00	376.05
242.00	389.31
243.00	412.71
244.00	429.10
245.00	412.71
246.00	433.00
247.00	418.18
248.00	433.00
249.00	411.93
250.00	425.98
251.00	393.99
252.00	389.31
253.00	390.87
254.00	417.40
255.00	461.09
256.00	475.91
257.00	481.37
258.00	450.94
259.00	433.78
260.00	433.78
261.00	404.91
262.00	412.71
263.00	410.37
264.00	431.44
265.00	429.88
266.00	454.06
267.00	526.62
268.00	571.87
269.00	570.31
270.00	524.28
271.00	532.86
272.00	573.43
273.00	617.90
274.00	621.80
275.00	624.92
276.00	624.92
277.00	607.76
278.00	550.03
279.00	479.03
280.00	429.10
281.00	401.01
282.00	410.37
283.00	411.93
284.00	392.43
285.00	386.97
286.00	394.77
287.00	413.49
288.00	425.98
289.00	417.40
290.00	425.98
291.00	418.96
292.00	420.52
293.00	404.91
294.00	391.65
295.00	403.35
296.00	415.06
297.00	411.93
298.00	411.93
299.00	436.90
300.00	427.54
301.00	433.78
302.00	422.86
303.00	428.32
304.00	397.89
305.00	400.23
306.00	451.72
307.00	518.04
308.00	607.76
309.00	653.79
310.00	670.95
311.00	601.52
312.00	536.76
313.00	464.99
314.00	407.25
315.00	408.81
316.00	424.42
317.00	455.62
318.00	422.08
319.00	406.47
320.00	383.85
321.00	383.85
322.00	378.39
323.00	378.39
324.00	381.51
325.00	383.85
326.00	415.06
327.00	432.22
328.00	424.42
329.00	399.45
330.00	392.43
331.00	416.62
332.00	427.54
333.00	404.91
334.00	385.41
335.00	391.65
336.00	427.54
337.00	447.04
338.00	449.38
339.00	443.92
340.00	440.80
341.00	430.66
342.00	411.15
343.00	397.89
344.00	404.91
345.00	455.62
346.00	553.93
347.00	634.29
348.00	688.90
349.00	717.76
350.00	705.28
351.00	648.33
352.00	571.87
353.00	532.86
354.00	525.84
355.00	533.64
356.00	510.24
357.00	494.63
358.00	443.92
359.00	452.50
360.00	447.04
361.00	429.88
362.00	411.15
363.00	409.59
364.00	401.01
365.00	427.54
366.00	434.56
367.00	479.03
368.00	461.87
369.00	459.53
370.00	429.10
371.00	418.18
372.00	401.01
373.00	424.42
374.00	417.40
375.00	398.67
376.00	403.35
377.00	418.18
378.00	429.10
379.00	420.52
380.00	407.25
381.00	429.10
382.00	440.80
383.00	450.94
384.00	441.58
385.00	440.80
386.00	418.96
387.00	410.37
388.00	377.61
389.00	386.97
390.00	374.49
391.00	394.77
392.00	409.59
393.00	427.54
394.00	411.93
395.00	401.79
396.00	425.98
397.00	440.02
398.00	439.24
399.00	431.44
400.00	424.42
401.00	422.08
402.00	403.35
403.00	419.74
404.00	412.71
405.00	445.48
406.00	429.10
407.00	429.10
408.00	391.65
409.00	411.93
410.00	415.06
411.00	443.14
412.00	435.34
413.00	436.90
414.00	424.42
415.00	429.10
416.00	433.78
417.00	421.30
418.00	422.08
419.00	419.74
420.00	422.08
421.00	424.42
422.00	435.34
423.00	421.30
424.00	408.03
425.00	409.59
426.00	445.48
427.00	429.88
428.00	401.79
429.00	389.31
430.00	385.41
431.00	425.20
432.00	412.71
433.00	433.78
434.00	428.32
435.00	431.44
436.00	426.76
437.00	409.59
438.00	401.79
439.00	411.93
440.00	429.88
441.00	455.62
442.00	483.71
443.00	477.47
444.00	464.99
445.00	418.96
446.00	410.37
447.00	409.59
448.00	416.62
449.00	419.74
450.00	408.81
451.00	395.55
452.00	388.53
453.00	401.01
454.00	397.89
455.00	423.64
456.00	400.23
457.00	393.99
458.00	358.88
459.00	380.73
460.00	422.86
461.00	440.80
462.00	440.80
463.00	415.84
464.00	414.27
465.00	434.56
466.00	456.40
467.00	453.28
468.00	422.86
469.00	401.79
470.00	393.21
471.00	376.83
472.00	402.57
473.00	418.96
474.00	450.94
475.00	443.92
476.00	450.94
477.00	427.54
478.00	411.93
479.00	386.19
480.00	401.79
481.00	416.62
482.00	418.18
483.00	417.40
484.00	400.23
485.00	410.37
486.00	428.32
487.00	436.12
488.00	436.90
489.00	425.20
490.00	422.08
491.00	422.08
492.00	424.42
493.00	428.32
494.00	452.50
495.00	423.64
496.00	411.15
497.00	385.41
498.00	424.42
499.00	410.37
500.00	405.69
501.00	398.67
502.00	433.78
503.00	451.72
504.00	436.90
505.00	436.90
506.00	452.50
507.00	468.89
508.00	469.67
509.00	429.88
510.00	434.56
511.00	409.59
512.00	425.98
513.00	404.13
514.00	400.23
515.00	395.55
516.00	412.71
517.00	444.70
518.00	441.58
519.00	412.71
520.00	404.91
521.00	402.57
522.00	427.54
523.00	413.49
524.00	425.20
525.00	421.30
526.00	417.40
527.00	436.12
528.00	424.42
529.00	422.08
530.00	401.79
531.00	425.20
532.00	470.45
533.00	468.89
534.00	474.35
535.00	451.72
536.00	424.42
537.00	422.08
538.00	435.34
539.00	484.49
540.00	469.67
541.00	455.62
542.00	431.44
543.00	447.04
544.00	424.42
545.00	409.59
546.00	397.89
547.00	419.74
548.00	460.31
549.00	461.87
550.00	452.50
551.00	418.96
552.00	416.62
553.00	440.80
554.00	437.68
555.00	461.09
556.00	444.70
557.00	446.26
558.00	445.48
559.00	442.36
560.00	445.48
561.00	433.78
562.00	426.76
563.00	444.70
564.00	414.27
565.00	404.13
566.00	404.13
567.00	427.54
568.00	443.92
569.00	425.20
570.00	414.27
571.00	430.66
572.00	415.84
573.00	412.71
574.00	411.15
575.00	432.22
576.00	443.92
577.00	429.10
578.00	444.70
579.00	435.34
580.00	415.06
581.00	399.45
582.00	411.15
583.00	434.56
584.00	431.44
585.00	425.98
586.00	413.49
587.00	415.84
588.00	425.20
589.00	449.38
590.00	436.12
591.00	415.84
592.00	387.75
593.00	420.52
594.00	430.66
595.00	456.40
596.00	442.36
597.00	434.56
598.00	420.52
599.00	435.34
600.00	432.22
601.00	451.72
602.00	456.40
603.00	450.94
604.00	416.62
605.00	386.19
606.00	415.06
607.00	413.49
608.00	436.90
609.00	414.27
610.00	411.15
611.00	386.97
612.00	390.87
613.00	393.99
614.00	413.49
615.00	393.99
616.00	399.45
617.00	401.79
618.00	446.26
619.00	454.84
620.00	444.70
621.00	429.10
622.00	426.76
623.00	417.40
624.00	418.96
625.00	407.25
626.00	412.71
627.00	423.64
628.00	446.26
629.00	460.31
630.00	416.62
631.00	412.71
632.00	401.79
633.00	427.54
634.00	401.79
635.00	391.65
636.00	413.49
637.00	429.88
638.00	447.04
639.00	442.36
640.00	454.84
641.00	425.98
642.00	423.64
643.00	422.86
644.00	433.00
645.00	407.25
646.00	404.91
647.00	396.33
648.00	400.23
649.00	425.20
650.00	464.21
651.00	472.79
652.00	436.90
653.00	397.11
654.00	418.96
655.00	440.80
656.00	454.84
657.00	418.18
658.00	403.35
659.00	407.25
660.00	411.93
661.00	392.43
662.00	420.52
663.00	397.11
664.00	428.32
665.00	423.64
666.00	452.50
667.00	440.02
668.00	435.34
669.00	429.10
670.00	440.80
671.00	434.56
672.00	446.26
673.00	420.52
674.00	401.79
675.00	391.65
676.00	410.37
677.00	423.64
678.00	435.34
679.00	427.54
680.00	407.25
681.00	411.15
682.00	411.93
683.00	439.24
684.00	424.42
685.00	432.22
686.00	418.96
687.00	410.37
688.00	400.23
689.00	409.59
690.00	424.42
691.00	447.82
692.00	431.44
693.00	434.56
694.00	431.44
695.00	450.94
696.00	422.08
697.00	418.18
698.00	436.90
699.00	447.82
700.00	454.84
701.00	428.32
702.00	443.92
703.00	436.12
704.00	446.26
705.00	444.70
706.00	444.70
707.00	429.88
708.00	429.88
709.00	420.52
710.00	440.80
711.00	441.58
712.00	411.93
713.00	363.56
714.00	350.30
715.00	376.83
716.00	406.47
717.00	445.48
718.00	500.87
719.00	496.97
720.00	475.91
721.00	434.56
722.00	453.28
723.00	475.91
724.00	475.91
725.00	440.80
726.00	421.30
727.00	401.01
728.00	403.35
729.00	395.55
730.00	399.45
731.00	443.92
732.00	450.94
733.00	474.35
734.00	486.83
735.00	526.62
736.00	507.90
737.00	483.71
738.00	462.65
739.00	473.57
740.00	473.57
741.00	462.65
742.00	462.65
743.00	486.83
744.00	477.47
745.00	480.59
746.00	457.96
747.00	457.96
748.00	437.68
749.00	436.12
750.00	449.38
751.00	475.91
752.00	438.46
753.00	415.06
754.00	413.49
755.00	429.88
756.00	426.76
757.00	420.52
758.00	418.96
759.00	443.92
760.00	459.53
761.00	494.63
762.00	489.17
763.00	485.27
764.00	479.81
765.00	490.73
766.00	449.38
767.00	431.44
768.00	394.77
769.00	398.67
770.00	386.19
771.00	389.31
772.00	391.65
773.00	393.99
774.00	408.81
775.00	421.30
776.00	447.04
777.00	465.77
778.00	485.27
779.00	515.70
780.00	532.08
781.00	574.99
782.00	559.39
783.00	613.22
784.00	568.75
785.00	546.12
786.00	464.99
787.00	443.92
788.00	432.22
789.00	418.96
790.00	433.00
791.00	419.74
792.00	412.71
793.00	415.06
794.00	436.90
795.00	448.60
796.00	437.68
797.00	450.94
798.00	476.69
799.00	509.46
800.00	493.07
801.00	482.15
802.00	450.16
803.00	450.16
804.00	451.72
805.00	453.28
806.00	459.53
807.00	447.04
808.00	442.36
809.00	427.54
810.00	440.02
811.00	433.78
812.00	445.48
813.00	418.96
814.00	442.36
815.00	438.46
816.00	447.82
817.00	436.90
818.00	427.54
819.00	422.86
820.00	415.84
821.00	452.50
822.00	504.78
823.00	545.34
824.00	514.92
825.00	500.09
826.00	486.05
827.00	489.17
828.00	457.18
829.00	448.60
830.00	454.84
831.00	468.11
832.00	465.77
833.00	465.77
834.00	458.75
835.00	461.87
836.00	468.11
837.00	486.05
838.00	466.55
839.00	459.53
840.00	450.16
841.00	488.39
842.00	500.09
843.00	520.38
844.00	485.27
845.00	473.57
846.00	424.42
847.00	417.40
848.00	425.98
849.00	447.82
850.00	473.57
851.00	441.58
852.00	423.64
853.00	407.25
854.00	404.13
855.00	428.32
856.00	440.80
857.00	451.72
858.00	442.36
859.00	425.20
860.00	454.06
861.00	467.33
862.00	489.95
863.00	480.59
864.00	476.69
865.00	468.89
866.00	424.42
867.00	393.99
868.00	379.95
869.00	396.33
870.00	411.93
871.00	393.99
872.00	402.57
873.00	403.35
874.00	425.20
875.00	434.56
876.00	442.36
877.00	464.21
878.00	479.81
879.00	466.55
880.00	438.46
881.00	441.58
882.00	448.60
883.00	462.65
884.00	439.24
885.00	436.90
886.00	427.54
887.00	439.24
888.00	446.26
889.00	438.46
890.00	441.58
891.00	444.70
892.00	455.62
893.00	458.75
894.00	461.87
895.00	461.87
896.00	450.16
897.00	442.36
898.00	458.74
899.00	461.87
900.00	468.89
901.00	457.96
902.00	443.92
903.00	480.59
904.00	582.01
905.00	724.01
906.00	784.08
907.00	763.01
908.00	688.90
909.00	946.36
910.00	985.37
911.00	1086.79
912.00	878.48
913.00	888.62
914.00	852.74
915.00	757.55
916.00	676.41
917.00	558.61
918.00	507.90
919.00	457.18
920.00	468.89
921.00	489.17
922.00	493.85
923.00	476.69
924.00	467.33
925.00	474.35
926.00	488.39
927.00	447.04
928.00	413.49
929.00	414.27
930.00	422.86
931.00	460.31
932.00	443.92
933.00	454.84
934.00	460.31
935.00	447.82
936.00	449.38
937.00	398.67
938.00	430.66
939.00	440.02
940.00	485.27
941.00	460.31
942.00	459.53
943.00	599.18
944.00	1040.76
945.00	1894.27
946.00	2864.04
947.00	3613.01
948.00	3684.00
949.00	3216.68
950.00	2406.07
951.00	1646.18
952.00	1079.77
953.00	764.57
954.00	622.58
955.00	541.44
956.00	472.01
957.00	437.68
958.00	440.02
959.00	443.92
960.00	443.92
961.00	433.00
962.00	454.84
963.00	445.48
964.00	457.18
965.00	431.44
966.00	457.18
967.00	464.21
968.00	464.99
969.00	451.72
970.00	433.78
971.00	439.24
972.00	447.04
973.00	417.40
974.00	408.81
975.00	378.39
976.00	387.75
977.00	397.11
978.00	433.00
979.00	455.62
980.00	451.72
981.00	412.71
982.00	420.52
983.00	448.60
984.00	473.57
985.00	443.14
986.00	411.93
987.00	410.37
988.00	432.22
989.00	447.82
990.00	447.04
991.00	429.88
992.00	435.34
993.00	455.62
994.00	490.73
995.00	483.71
996.00	456.40
997.00	437.68
998.00	450.16
999.00	475.91
1000.00	488.39
1001.00	498.53
1002.00	494.63
1003.00	483.71
1004.00	465.77
1005.00	444.70
1006.00	460.31
1007.00	443.92
1008.00	454.06
1009.00	436.90
1010.00	470.45
1011.00	463.43
1012.00	466.55
1013.00	425.20
1014.00	432.22
1015.00	420.52
1016.00	434.56
1017.00	450.16
1018.00	450.16
1019.00	479.81
1020.00	454.06
1021.00	440.02
1022.00	413.49
1023.00	425.20
1024.00	421.30
1025.00	415.06
1026.00	399.45
1027.00	421.30
1028.00	428.32
1029.00	422.08
1030.00	418.18
1031.00	392.43
1032.00	412.71
1033.00	398.67
1034.00	425.98
1035.00	427.54
1036.00	464.99
1037.00	440.80
1038.00	452.50
1039.00	453.28
1040.00	497.75
1041.00	507.90
1042.00	514.14
1043.00	517.26
1044.00	540.66
1045.00	578.89
1046.00	564.85
1047.00	531.30
1048.00	483.71
1049.00	454.84
1050.00	454.84
1051.00	431.44
1052.00	439.24
1053.00	440.80
1054.00	467.33
1055.00	492.29
1056.00	489.95
1057.00	454.84
1058.00	449.38
1059.00	430.66
1060.00	411.15
1061.00	412.71
1062.00	407.25
1063.00	436.90
1064.00	403.35
1065.00	425.98
1066.00	422.08
1067.00	471.23
1068.00	465.77
1069.00	482.15
1070.00	464.99
1071.00	450.94
1072.00	454.84
1073.00	419.74
1074.00	441.58
1075.00	433.78
1076.00	452.50
1077.00	440.02
1078.00	430.66
1079.00	477.47
1080.00	467.33
1081.00	464.21
1082.00	445.48
1083.00	444.70
1084.00	462.65
1085.00	433.00
1086.00	458.74
1087.00	452.50
1088.00	493.07
1089.00	473.57
1090.00	479.81
1091.00	471.23
1092.00	468.11
1093.00	459.53
1094.00	422.08
1095.00	447.82
1096.00	474.35
1097.00	496.97
1098.00	521.94
1099.00	549.25
1100.00	587.47
1101.00	578.11
1102.00	565.63
1103.00	535.20
1104.00	543.00
1105.00	526.62
1106.00	515.70
1107.00	460.31
1108.00	441.58
1109.00	440.02
1110.00	448.60
1111.00	435.34
1112.00	411.15
1113.00	396.33
1114.00	377.61
1115.00	393.99
1116.00	421.30
1117.00	448.60
1118.00	464.99
1119.00	482.15
1120.00	525.84
1121.00	528.18
1122.00	518.82
1123.00	477.47
1124.00	479.03
1125.00	482.93
1126.00	493.07
1127.00	472.79
1128.00	457.18
1129.00	437.68
1130.00	477.47
1131.00	484.49
1132.00	487.61
1133.00	457.96
1134.00	456.40
1135.00	481.37
1136.00	510.24
1137.00	543.78
1138.00	554.71
1139.00	560.17
1140.00	526.62
1141.00	533.64
1142.00	505.56
1143.00	502.44
1144.00	493.07
1145.00	500.87
1146.00	518.82
1147.00	506.34
1148.00	470.45
1149.00	468.89
1150.00	480.59
1151.00	508.68
1152.00	509.46
1153.00	511.02
1154.00	540.66
1155.00	585.13
1156.00	660.03
1157.00	726.35
1158.00	722.45
1159.00	688.12
1160.00	635.07
1161.00	613.22
1162.00	602.30
1163.00	643.65
1164.00	814.51
1165.00	1097.71
1166.00	1433.97
1167.00	1703.91
1168.00	1716.39
1169.00	1562.70
1170.00	1261.55
1171.00	1013.45
1172.00	800.46
1173.00	660.03
1174.00	571.09
1175.00	539.10
1176.00	578.89
1177.00	610.10
1178.00	635.07
1179.00	581.23
1180.00	564.85
1181.00	557.05
1182.00	580.45
1183.00	611.66
1184.00	609.32
1185.00	626.48
1186.00	632.72
1187.00	660.03
1188.00	667.83
1189.00	699.82
1190.00	770.82
1191.00	830.11
1192.00	862.88
1193.00	857.42
1194.00	872.24
1195.00	851.95
1196.00	826.99
1197.00	826.99
1198.00	903.45
1199.00	1025.15
1200.00	1167.15
1201.00	1372.33
1202.00	1468.30
1203.00	1511.99
1204.00	1412.12
1205.00	1317.72
1206.00	1204.60
1207.00	1126.58
1208.00	1127.36
1209.00	1143.74
1210.00	1181.97
1211.00	1232.68
1212.00	1334.11
1213.00	1469.86
1214.00	1695.33
1215.00	1994.92
1216.00	2564.45
1217.00	5815.45
1218.00	21214.62
1219.00	41946.30
1220.00	59876.36
1221.00	65535.00
1222.00	65535.00
1223.00	65535.00
1224.00	65535.00
1225.00	65298.61
1226.00	56305.49
1227.00	40651.98
1228.00	22059.55
1229.00	10777.39
1230.00	5529.91
1231.00	3215.90
1232.00	2242.23
1233.00	1829.52
1234.00	1652.42
1235.00	1618.87
1236.00	2125.21
1237.00	3787.77
1238.00	7023.17
1239.00	11530.26
1240.00	15250.93
1241.00	16442.26
1242.00	14618.99
1243.00	11233.79
1244.00	7610.64
1245.00	4717.74
1246.00	2739.21
1247.00	1748.38
1248.00	1211.62
1249.00	957.28
1250.00	929.19
1251.00	1009.55
1252.00	1108.63
1253.00	1164.81
1254.00	1238.14
1255.00	1242.04
1256.00	1238.92
1257.00	1144.52
1258.00	1077.43
1259.00	998.63
1260.00	947.92
1261.00	905.79
1262.00	881.60
1263.00	848.05
1264.00	808.26
1265.00	776.28
1266.00	787.98
1267.00	799.68
1268.00	795.78
1269.00	773.16
1270.00	774.72
1271.00	763.01
1272.00	796.56
1273.00	821.53
1274.00	897.99
1275.00	1251.41
1276.00	2988.08
1277.00	7202.61
1278.00	14547.21
1279.00	22811.64
1280.00	28387.58
1281.00	28620.07
1282.00	24304.12
1283.00	17816.16
1284.00	11553.66
1285.00	6667.41
1286.00	3664.50
1287.00	2101.80
1288.00	1323.96
1289.00	986.15
1290.00	889.40
1291.00	848.83
1292.00	870.68
1293.00	858.20
1294.00	896.43
1295.00	1070.40
1296.00	1711.71
1297.00	2974.82
1298.00	4666.25
1299.00	6166.53
1300.00	6803.16
1301.00	6316.33
1302.00	5145.28
1303.00	3694.15
1304.00	2495.79
1305.00	1621.21
1306.00	1210.84
1307.00	1035.30
1308.00	915.93
1309.00	812.95
1310.00	737.27
1311.00	714.64
1312.00	688.12
1313.00	658.47
1314.00	614.00
1315.00	590.60
1316.00	573.43
1317.00	564.85
1318.00	558.61
1319.00	560.95
1320.00	563.29
1321.00	585.91
1322.00	608.54
1323.00	599.96
1324.00	599.96
1325.00	564.07
1326.00	582.79
1327.00	564.07
1328.00	585.91
1329.00	630.38
1330.00	990.83
1331.00	1867.75
1332.00	3431.23
1333.00	5345.78
1334.00	6873.37
1335.00	7347.72
1336.00	6617.47
1337.00	5224.86
1338.00	3710.53
1339.00	2446.64
1340.00	1573.62
1341.00	1048.56
1342.00	816.85
1343.00	694.36
1344.00	674.85
1345.00	648.33
1346.00	632.72
1347.00	624.14
1348.00	621.80
1349.00	614.78
1350.00	638.97
1351.00	660.81
1352.00	699.04
1353.00	709.18
1354.00	698.26
1355.00	713.86
1356.00	727.13
1357.00	836.35
1358.00	1448.79
1359.00	3499.88
1360.00	7730.01
1361.00	14158.68
1362.00	20392.31
1363.00	23840.70
1364.00	22817.10
1365.00	18935.71
1366.00	13610.22
1367.00	8852.69
1368.00	5073.50
1369.00	2963.90
1370.00	1889.59
1371.00	1482.34
1372.00	2168.90
1373.00	5452.67
1374.00	12613.93
1375.00	24012.34
1376.00	35418.55
1377.00	42121.06
1378.00	40860.29
1379.00	34159.34
1380.00	24847.13
1381.00	16130.97
1382.00	9106.24
1383.00	4873.78
1384.00	2697.86
1385.00	1668.80
1386.00	1160.91
1387.00	939.34
1388.00	855.08
1389.00	844.93
1390.00	860.54
1391.00	846.49
1392.00	830.11
1393.00	838.69
1394.00	911.25
1395.00	1106.29
1396.00	1368.43
1397.00	1687.53
1398.00	1848.24
1399.00	1870.09
1400.00	1769.44
1401.00	1706.25
1402.00	2226.63
1403.00	5550.97
1404.00	14654.87
1405.00	30413.70
1406.00	46375.37
1407.00	56988.14
1408.00	58870.71
1409.00	54630.44
1410.00	44842.32
1411.00	31704.12
1412.00	18976.28
1413.00	9995.65
1414.00	5257.62
1415.00	3016.95
1416.00	2515.30
1417.00	3663.72
1418.00	6713.44
1419.00	11201.02
1420.00	15421.01
1421.00	17396.42
1422.00	16375.95
1423.00	13418.29
1424.00	9705.42
1425.00	6352.99
1426.00	3737.84
1427.00	2199.32
1428.00	1403.54
1429.00	1029.06
1430.00	883.94
1431.00	805.14
1432.00	802.02
1433.00	803.58
1434.00	783.30
1435.00	757.55
1436.00	714.64
1437.00	702.16
1438.00	629.60
1439.00	612.44
1440.00	627.26
1441.00	646.77
1442.00	633.50
1443.00	610.10
1444.00	579.67
1445.00	570.31
1446.00	571.09
1447.00	608.54
1448.00	652.23
1449.00	683.44
1450.00	725.57
1451.00	977.56
1452.00	1858.39
1453.00	3602.86
1454.00	6203.20
1455.00	8711.47
1456.00	10188.35
1457.00	9898.91
1458.00	8544.52
1459.00	6451.30
1460.00	4476.66
1461.00	2711.90
1462.00	1668.80
1463.00	1133.60
1464.00	853.52
1465.00	728.69
1466.00	664.71
1467.00	659.25
1468.00	654.57
1469.00	642.09
1470.00	625.70
1471.00	622.58
1472.00	630.38
1473.00	631.16
1474.00	616.34
1475.00	631.94
1476.00	642.87
1477.00	661.59
1478.00	679.54
1479.00	704.50
1480.00	699.82
1481.00	713.86
1482.00	774.72
1483.00	1206.16
1484.00	3118.37
1485.00	7630.15
1486.00	15809.54
1487.00	25710.78
1488.00	33481.36
1489.00	35375.64
1490.00	31777.45
1491.00	24927.49
1492.00	17463.52
1493.00	10707.17
1494.00	5941.84
1495.00	3243.20
1496.00	1878.67
1497.00	1182.75
1498.00	905.01
1499.00	757.55
1500.00	709.96
1501.00	645.99
1502.00	646.77
1503.00	606.20
1504.00	583.57
1505.00	598.40
1506.00	642.87
1507.00	660.03
1508.00	684.22
1509.00	911.25
1510.00	1707.03
1511.00	3202.63
1512.00	5478.41
1513.00	7556.03
1514.00	8716.94
1515.00	8430.61
1516.00	7202.61
1517.00	5511.96
1518.00	3838.48
1519.00	2431.04
1520.00	1540.85
1521.00	1060.26
1522.00	862.88
1523.00	787.98
1524.00	731.03
1525.00	726.35
1526.00	749.75
1527.00	823.09
1528.00	1067.28
1529.00	2048.75
1530.00	4651.42
1531.00	9421.44
1532.00	15734.64
1533.00	21261.43
1534.00	23577.00
1535.00	22024.44
1536.00	18008.08
1537.00	13088.28
1538.00	8557.78
1539.00	4987.68
1540.00	2854.67
1541.00	1731.22
1542.00	1181.97
1543.00	906.57
1544.00	797.34
1545.00	739.61
1546.00	739.61
1547.00	733.37
1548.00	719.32
1549.00	695.14
1550.00	670.95
1551.00	704.50
1552.00	727.91
1553.00	747.41
1554.00	732.59
1555.00	741.95
1556.00	752.09
1557.00	776.28
1558.00	793.44
1559.00	840.25
1560.00	954.16
1561.00	1720.29
1562.00	4615.54
1563.00	10967.75
1564.00	21741.24
1565.00	33731.80
1566.00	42443.27
1567.00	43800.01
1568.00	38983.96
1569.00	30590.80
1570.00	21444.77
1571.00	13328.57
1572.00	7542.77
1573.00	4436.10
1574.00	3903.23
1575.00	7630.15
1576.00	17302.02
1577.00	32815.87
1578.00	47661.89
1579.00	56997.51
1580.00	58301.18
1581.00	54275.46
1582.00	45302.63
1583.00	32875.94
1584.00	20219.89
1585.00	10932.64
1586.00	5767.08
1587.00	3194.83
1588.00	1936.40
1589.00	1319.28
1590.00	1015.79
1591.00	890.18
1592.00	818.41
1593.00	804.36
1594.00	755.99
1595.00	731.03
1596.00	681.88
1597.00	669.39
1598.00	645.99
1599.00	638.19
1600.00	608.54
1601.00	597.62
1602.00	567.97
1603.00	588.25
1604.00	564.85
1605.00	596.06
1606.00	600.74
1607.00	599.96
1608.00	589.03
1609.00	567.19
1610.00	591.38
1611.00	577.33
1612.00	578.11
1613.00	581.23
1614.00	574.99
1615.00	574.99
1616.00	566.41
1617.00	574.99
1618.00	561.73
1619.00	557.05
1620.00	582.01
1621.00	619.46
1622.00	586.69
1623.00	563.29
1624.00	557.05
1625.00	603.08
1626.00	594.50
1627.00	593.72
1628.00	576.55
1629.00	554.71
1630.00	536.76
1631.00	552.37
1632.00	610.88
1633.00	626.48
1634.00	626.48
1635.00	619.46
1636.00	585.13
1637.00	606.20
1638.00	619.46
1639.00	664.71
1640.00	670.17
1641.00	650.67
1642.00	697.48
1643.00	722.45
1644.00	816.85
1645.00	1308.36
1646.00	3367.25
1647.00	7966.40
1648.00	15991.32
1649.00	25264.52
1650.00	32610.68
1651.00	34645.39
1652.00	31945.97
1653.00	25951.08
1654.00	18945.86
1655.00	12148.94
1656.00	7020.05
1657.00	3866.56
1658.00	2217.27
1659.00	1409.00
1660.00	1038.42
1661.00	869.90
1662.00	814.51
1663.00	867.56
1664.00	1456.59
1665.00	2860.91
1666.00	5321.60
1667.00	8368.98
1668.00	11040.31
1669.00	12177.81
1670.00	11560.69
1671.00	9729.61
1672.00	7414.82
1673.00	5094.57
1674.00	3163.62
1675.00	1930.16
1676.00	1240.48
1677.00	899.55
1678.00	698.26
1679.00	612.44
1680.00	574.99
1681.00	564.07
1682.00	533.64
1683.00	501.65
1684.00	521.94
1685.00	544.56
1686.00	545.34
1687.00	540.66
1688.00	511.80
1689.00	504.78
1690.00	490.73
1691.00	532.86
1692.00	528.18
1693.00	521.16
1694.00	474.35
1695.00	496.97
1696.00	504.78
1697.00	541.44
1698.00	539.88
1699.00	539.88
1700.00	535.98
1701.00	520.38
1702.00	532.86
1703.00	543.78
1704.00	562.51
1705.00	564.85
1706.00	587.47
1707.00	598.40
1708.00	668.61
1709.00	897.21
1710.00	1916.90
1711.00	4022.60
1712.00	7670.72
1713.00	12098.23
1714.00	15690.95
1715.00	17086.69
1716.00	15999.12
1717.00	13440.92
1718.00	10119.70
1719.00	6862.45
1720.00	4199.70
1721.00	2463.80
1722.00	1501.84
1723.00	996.29
1724.00	766.92
1725.00	648.33
1726.00	586.69
1727.00	548.47
1728.00	521.94
1729.00	548.47
1730.00	551.59
1731.00	537.54
1732.00	507.12
1733.00	480.59
1734.00	475.91
1735.00	489.95
1736.00	500.09
1737.00	516.48
1738.00	507.90
1739.00	535.20
1740.00	531.30
1741.00	526.62
1742.00	518.04
1743.00	511.02
1744.00	506.34
1745.00	512.58
1746.00	514.14
1747.00	506.34
1748.00	487.61
1749.00	517.26
1750.00	564.07
1751.00	624.14
1752.00	595.28
1753.00	571.09
1754.00	542.22
1755.00	542.22
1756.00	546.91
1757.00	538.32
1758.00	564.07
1759.00	571.87
1760.00	595.28
1761.00	603.86
1762.00	611.66
1763.00	646.77
1764.00	779.40
1765.00	1530.71
1766.00	3724.57
1767.00	8119.32
1768.00	15069.15
1769.00	22801.50
1770.00	28803.41
1771.00	30360.65
1772.00	27944.44
1773.00	22781.99
1774.00	16720.79
1775.00	10944.35
1776.00	6484.84
1777.00	3747.98
1778.00	2182.16
1779.00	1366.87
1780.00	972.10
1781.00	810.61
1782.00	729.47
1783.00	699.82
1784.00	679.54
1785.00	668.61
1786.00	630.38
1787.00	603.86
1788.00	570.31
1789.00	569.53
1790.00	578.89
1791.00	637.41
1792.00	776.28
1793.00	1536.17
1794.00	3446.83
1795.00	6823.44
1796.00	11478.77
1797.00	15930.47
1798.00	18609.60
1799.00	18403.63
1800.00	15983.52
1801.00	12472.71
1802.00	8862.05
1803.00	5698.42
1804.00	3421.86
1805.00	2004.28
1806.00	1284.95
1807.00	915.93
1808.00	736.49
1809.00	631.94
1810.00	589.82
1811.00	571.09
1812.00	578.11
1813.00	570.31
1814.00	557.83
1815.00	517.26
1816.00	519.60
1817.00	508.68
1818.00	535.20
1819.00	522.72
1820.00	567.97
1821.00	596.84
1822.00	630.38
1823.00	640.53
1824.00	684.22
1825.00	695.92
1826.00	657.69
1827.00	610.10
1828.00	582.01
1829.00	555.49
1830.00	497.75
1831.00	461.09
1832.00	472.01
1833.00	495.41
1834.00	481.37
1835.00	472.01
1836.00	455.62
1837.00	470.45
1838.00	462.65
1839.00	448.60
1840.00	433.78
1841.00	440.02
1842.00	460.31
1843.00	461.09
1844.00	446.26
1845.00	434.56
1846.00	440.80
1847.00	440.80
1848.00	445.48
1849.00	443.14
1850.00	463.43
1851.00	473.57
1852.00	476.69
1853.00	464.21
1854.00	447.04
1855.00	445.48
1856.00	425.20
1857.00	433.78
1858.00	437.68
1859.00	449.38
1860.00	462.65
1861.00	483.71
1862.00	499.31
1863.00	489.17
1864.00	475.13
1865.00	482.93
1866.00	475.91
1867.00	471.23
1868.00	447.82
1869.00	447.82
1870.00	447.82
1871.00	472.01
1872.00	482.15
1873.00	475.13
1874.00	460.31
1875.00	450.94
1876.00	458.75
1877.00	436.90
1878.00	468.89
1879.00	462.65
1880.00	474.35
1881.00	438.46
1882.00	442.36
1883.00	440.02
1884.00	442.36
1885.00	456.40
1886.00	451.72
1887.00	447.04
1888.00	426.76
1889.00	445.48
1890.00	450.16
1891.00	475.13
1892.00	485.27
1893.00	487.61
1894.00	455.62
1895.00	429.88
1896.00	435.34
1897.00	436.90
1898.00	443.14
1899.00	446.26
1900.00	460.31
1901.00	458.74
1902.00	443.92
1903.00	473.57
1904.00	490.73
1905.00	504.78
1906.00	499.31
1907.00	547.69
1908.00	624.92
1909.00	672.51
1910.00	661.59
1911.00	617.12
1912.00	557.05
1913.00	517.26
1914.00	492.29
1915.00	513.36
1916.00	490.73
1917.00	465.77
1918.00	452.50
1919.00	464.99
1920.00	485.27
1921.00	491.51
1922.00	491.51
1923.00	474.35
1924.00	444.70
1925.00	451.72
1926.00	445.48
1927.00	475.13
1928.00	454.84
1929.00	478.25
1930.00	465.77
1931.00	485.27
1932.00	449.38
1933.00	417.40
1934.00	416.62
1935.00	436.12
1936.00	469.67
1937.00	472.79
1938.00	473.57
1939.00	465.77
1940.00	462.65
1941.00	468.89
1942.00	485.27
1943.00	496.19
1944.00	508.68
1945.00	518.04
1946.00	596.06
1947.00	996.29
1948.00	2103.36
1949.00	4116.22
1950.00	7142.53
1951.00	10610.43
1952.00	13490.07
1953.00	14518.34
1954.00	13654.69
1955.00	11683.17
1956.00	9241.22
1957.00	6879.61
1958.00	4753.63
1959.00	3226.04
1960.00	2110.38
1961.00	1389.50
1962.00	977.56
1963.00	745.07
1964.00	631.94
1965.00	578.89
1966.00	574.99
1967.00	546.91
1968.00	525.06
1969.00	518.04
1970.00	501.65
1971.00	494.63
1972.00	468.89
1973.00	505.56
1974.00	547.69
1975.00	632.72
1976.00	728.69
1977.00	899.55
1978.00	1122.68
1979.00	1272.47
1980.00	1320.06
1981.00	1242.04
1982.00	1122.68
1983.00	992.39
1984.00	839.47
1985.00	743.51
1986.00	649.11
1987.00	601.52
1988.00	525.06
1989.00	505.56
1990.00	482.15
1991.00	496.97
1992.00	492.29
1993.00	493.85
1994.00	529.74
1995.00	506.34
1996.00	513.36
1997.00	471.23
1998.00	507.90
1999.00	497.75
2000.00	504.00
2001.00	511.80
2002.00	540.66
2003.00	542.22
2004.00	503.22
2005.00	479.81
2006.00	461.09
2007.00	484.49
2008.00	486.05
2009.00	513.36
2010.00	503.22
2011.00	530.52
2012.00	550.03
2013.00	572.65
2014.00	546.12
2015.00	533.64
2016.00	530.52
2017.00	572.65
2018.00	599.18
2019.00	641.31
2020.00	756.77
2021.00	945.58
2022.00	1167.93
2023.00	1378.58
2024.00	1915.34
2025.00	3470.23
2026.00	6637.76
2027.00	11839.99
2028.00	18579.17
2029.00	25102.25
2030.00	29355.00
2031.00	29932.33
2032.00	27796.98
2033.00	23772.04
2034.00	18859.26
2035.00	13838.81
2036.00	9456.54
2037.00	6267.17
2038.00	3932.88
2039.00	2463.02
2040.00	1602.49
2041.00	1145.30
2042.00	898.77
2043.00	776.28
2044.00	727.13
2045.00	685.78
2046.00	673.29
2047.00	664.71
>>>>>End Processed Spectral Data<<<<<
