SpectraSuite Data File
++++++++++++++++++++++++++++++++++++
Date: Thu Nov 16 13:55:20 EST 2017
User: cheriyan
Dark Spectrum Present: No
Reference Spectrum Present: No
Number of Sampled Component Spectra: 1
Spectrometers: USB2+H05261
Integration Time (usec): 100000 (USB2+H05261)
Spectra Averaged: 1 (USB2+H05261)
Boxcar Smoothing: 1 (USB2+H05261)
Correct for Electrical Dark: No (USB2+H05261)
Strobe/Lamp Enabled: No (USB2+H05261)
Correct for Detector Non-linearity: No (USB2+H05261)
Correct for Stray Light: No (USB2+H05261)
Number of Pixels in Processed Spectrum: 2048
>>>>>Begin Processed Spectral Data<<<<<
0.00	425.98
1.00	425.98
2.00	371.36
3.00	299.59
4.00	241.86
5.00	244.20
6.00	255.90
7.00	252.78
8.00	255.12
9.00	234.05
10.00	220.01
11.00	212.21
12.00	238.73
13.00	254.34
14.00	281.64
15.00	281.64
16.00	284.77
17.00	243.42
18.00	244.98
19.00	248.10
20.00	273.06
21.00	277.74
22.00	294.13
23.00	309.73
24.00	317.53
25.00	334.70
26.00	367.46
27.00	413.49
28.00	411.93
29.00	390.87
30.00	353.42
31.00	346.40
32.00	364.34
33.00	372.93
34.00	382.29
35.00	396.33
36.00	393.21
37.00	387.75
38.00	354.20
39.00	368.24
40.00	411.93
41.00	426.76
42.00	454.06
43.00	425.20
44.00	462.65
45.00	429.88
46.00	447.04
47.00	418.96
48.00	445.48
49.00	429.88
50.00	435.34
51.00	425.98
52.00	436.90
53.00	440.80
54.00	403.35
55.00	404.91
56.00	403.35
57.00	452.50
58.00	422.08
59.00	400.23
60.00	374.49
61.00	384.63
62.00	392.43
63.00	391.65
64.00	386.97
65.00	388.53
66.00	404.91
67.00	429.88
68.00	425.20
69.00	428.32
70.00	429.88
71.00	426.76
72.00	422.08
73.00	396.33
74.00	379.17
75.00	380.73
76.00	376.83
77.00	400.23
78.00	394.77
79.00	410.37
80.00	397.89
81.00	415.06
82.00	421.30
83.00	409.59
84.00	379.17
85.00	369.80
86.00	408.03
87.00	429.10
88.00	430.66
89.00	403.35
90.00	405.69
91.00	426.76
92.00	452.50
93.00	426.76
94.00	404.91
95.00	383.07
96.00	398.67
97.00	394.77
98.00	405.69
99.00	408.81
100.00	433.78
101.00	399.45
102.00	415.84
103.00	408.81
104.00	446.26
105.00	408.81
106.00	398.67
107.00	369.80
108.00	396.33
109.00	386.97
110.00	401.79
111.00	389.31
112.00	423.64
113.00	422.86
114.00	420.52
115.00	389.31
116.00	401.01
117.00	394.77
118.00	399.45
119.00	408.81
120.00	416.62
121.00	418.18
122.00	421.30
123.00	393.99
124.00	404.91
125.00	384.63
126.00	394.77
127.00	389.31
128.00	408.03
129.00	415.06
130.00	406.47
131.00	377.61
132.00	393.99
133.00	385.41
134.00	391.65
135.00	393.99
136.00	399.45
137.00	412.71
138.00	396.33
139.00	400.23
140.00	393.99
141.00	426.76
142.00	448.60
143.00	460.31
144.00	454.84
145.00	450.16
146.00	459.53
147.00	466.55
148.00	503.22
149.00	497.75
150.00	494.63
151.00	450.94
152.00	425.98
153.00	400.23
154.00	407.25
155.00	422.86
156.00	417.40
157.00	422.08
158.00	425.98
159.00	433.00
160.00	397.11
161.00	381.51
162.00	401.79
163.00	425.20
164.00	412.71
165.00	391.65
166.00	393.99
167.00	436.90
168.00	427.54
169.00	418.96
170.00	386.19
171.00	399.45
172.00	407.25
173.00	416.62
174.00	434.56
175.00	435.34
176.00	425.98
177.00	418.96
178.00	409.59
179.00	433.00
180.00	427.54
181.00	411.15
182.00	408.03
183.00	392.43
184.00	401.01
185.00	399.45
186.00	434.56
187.00	426.76
188.00	421.30
189.00	401.79
190.00	389.31
191.00	372.93
192.00	372.93
193.00	419.74
194.00	443.92
195.00	474.35
196.00	498.53
197.00	511.80
198.00	520.38
199.00	488.39
200.00	468.11
201.00	431.44
202.00	408.81
203.00	415.06
204.00	411.15
205.00	433.78
206.00	417.40
207.00	419.74
208.00	409.59
209.00	404.91
210.00	415.06
211.00	430.66
212.00	446.26
213.00	440.80
214.00	433.00
215.00	408.03
216.00	390.09
217.00	387.75
218.00	393.99
219.00	407.25
220.00	399.45
221.00	410.37
222.00	405.69
223.00	422.08
224.00	424.42
225.00	396.33
226.00	372.93
227.00	376.83
228.00	411.15
229.00	436.12
230.00	420.52
231.00	433.00
232.00	425.98
233.00	429.88
234.00	430.66
235.00	392.43
236.00	389.31
237.00	368.24
238.00	383.07
239.00	398.67
240.00	377.61
241.00	394.77
242.00	388.53
243.00	422.86
244.00	424.42
245.00	425.20
246.00	433.78
247.00	454.06
248.00	461.87
249.00	436.12
250.00	390.09
251.00	389.31
252.00	413.49
253.00	454.06
254.00	458.75
255.00	461.09
256.00	461.87
257.00	471.23
258.00	462.65
259.00	467.33
260.00	460.31
261.00	425.98
262.00	425.98
263.00	415.84
264.00	446.26
265.00	436.12
266.00	461.87
267.00	511.02
268.00	559.39
269.00	556.27
270.00	551.59
271.00	532.86
272.00	578.89
273.00	595.28
274.00	608.54
275.00	602.30
276.00	590.60
277.00	596.84
278.00	557.83
279.00	504.78
280.00	449.38
281.00	443.14
282.00	440.02
283.00	440.80
284.00	415.84
285.00	398.67
286.00	401.01
287.00	393.21
288.00	404.13
289.00	383.07
290.00	402.57
291.00	404.13
292.00	441.58
293.00	421.30
294.00	425.20
295.00	415.06
296.00	429.88
297.00	468.11
298.00	442.36
299.00	436.12
300.00	399.45
301.00	428.32
302.00	450.94
303.00	446.26
304.00	452.50
305.00	431.44
306.00	451.72
307.00	522.72
308.00	607.76
309.00	662.37
310.00	645.99
311.00	618.68
312.00	584.35
313.00	533.64
314.00	500.09
315.00	492.29
316.00	465.77
317.00	454.84
318.00	424.42
319.00	420.52
320.00	418.96
321.00	430.66
322.00	454.06
323.00	433.00
324.00	420.52
325.00	393.21
326.00	381.51
327.00	393.99
328.00	398.67
329.00	433.00
330.00	443.92
331.00	462.65
332.00	418.18
333.00	397.11
334.00	379.17
335.00	422.08
336.00	418.18
337.00	437.68
338.00	434.56
339.00	426.76
340.00	436.90
341.00	450.94
342.00	460.31
343.00	442.36
344.00	437.68
345.00	489.17
346.00	562.51
347.00	648.33
348.00	716.98
349.00	731.81
350.00	697.48
351.00	603.86
352.00	539.10
353.00	516.48
354.00	536.76
355.00	546.91
356.00	521.16
357.00	489.17
358.00	452.50
359.00	453.28
360.00	447.82
361.00	447.82
362.00	430.66
363.00	443.92
364.00	428.32
365.00	436.12
366.00	428.32
367.00	436.12
368.00	457.18
369.00	456.40
370.00	469.67
371.00	435.34
372.00	411.93
373.00	390.87
374.00	406.47
375.00	400.23
376.00	419.74
377.00	404.91
378.00	431.44
379.00	407.25
380.00	397.89
381.00	390.09
382.00	404.13
383.00	431.44
384.00	421.30
385.00	406.47
386.00	399.45
387.00	428.32
388.00	428.32
389.00	407.25
390.00	404.91
391.00	421.30
392.00	450.16
393.00	401.79
394.00	400.23
395.00	408.81
396.00	437.68
397.00	454.06
398.00	422.86
399.00	433.78
400.00	422.86
401.00	438.46
402.00	432.22
403.00	421.30
404.00	437.68
405.00	454.06
406.00	455.62
407.00	431.44
408.00	399.45
409.00	413.49
410.00	415.06
411.00	421.30
412.00	443.14
413.00	450.94
414.00	443.92
415.00	401.79
416.00	396.33
417.00	411.15
418.00	408.81
419.00	410.37
420.00	394.77
421.00	400.23
422.00	400.23
423.00	422.86
424.00	440.80
425.00	465.77
426.00	434.56
427.00	422.08
428.00	397.11
429.00	442.36
430.00	449.38
431.00	467.33
432.00	433.00
433.00	432.22
434.00	406.47
435.00	437.68
436.00	426.76
437.00	435.34
438.00	410.37
439.00	411.15
440.00	434.56
441.00	466.55
442.00	464.21
443.00	451.72
444.00	438.46
445.00	450.94
446.00	427.54
447.00	429.88
448.00	425.98
449.00	426.76
450.00	428.32
451.00	438.46
452.00	443.92
453.00	436.90
454.00	443.92
455.00	454.84
456.00	452.50
457.00	434.56
458.00	432.22
459.00	417.40
460.00	414.27
461.00	419.74
462.00	454.84
463.00	428.32
464.00	390.87
465.00	379.95
466.00	397.11
467.00	421.30
468.00	411.93
469.00	440.80
470.00	450.16
471.00	440.02
472.00	413.49
473.00	410.37
474.00	420.52
475.00	422.86
476.00	393.21
477.00	388.53
478.00	413.49
479.00	452.50
480.00	459.53
481.00	464.99
482.00	446.26
483.00	421.30
484.00	401.01
485.00	411.93
486.00	422.86
487.00	411.15
488.00	415.84
489.00	419.74
490.00	401.79
491.00	388.53
492.00	401.79
493.00	436.90
494.00	453.28
495.00	440.02
496.00	419.74
497.00	395.55
498.00	404.91
499.00	417.40
500.00	454.84
501.00	457.18
502.00	454.06
503.00	412.71
504.00	398.67
505.00	418.96
506.00	472.01
507.00	472.01
508.00	445.48
509.00	386.19
510.00	397.11
511.00	404.91
512.00	433.78
513.00	429.88
514.00	429.10
515.00	418.96
516.00	413.49
517.00	406.47
518.00	423.64
519.00	416.62
520.00	422.86
521.00	405.69
522.00	401.01
523.00	397.11
524.00	411.15
525.00	443.14
526.00	450.94
527.00	436.90
528.00	411.15
529.00	411.15
530.00	420.52
531.00	436.90
532.00	422.86
533.00	408.81
534.00	422.86
535.00	441.58
536.00	439.24
537.00	435.34
538.00	409.59
539.00	411.93
540.00	410.37
541.00	413.49
542.00	421.30
543.00	406.47
544.00	413.49
545.00	425.20
546.00	415.84
547.00	429.88
548.00	411.93
549.00	437.68
550.00	461.87
551.00	459.53
552.00	467.33
553.00	439.24
554.00	448.60
555.00	431.44
556.00	444.70
557.00	447.04
558.00	479.81
559.00	469.67
560.00	476.69
561.00	443.14
562.00	452.50
563.00	426.76
564.00	415.84
565.00	415.06
566.00	443.92
567.00	445.48
568.00	431.44
569.00	404.91
570.00	395.55
571.00	399.45
572.00	426.76
573.00	454.84
574.00	461.87
575.00	423.64
576.00	397.11
577.00	385.41
578.00	432.22
579.00	447.04
580.00	443.92
581.00	429.88
582.00	421.30
583.00	407.25
584.00	409.59
585.00	427.54
586.00	441.58
587.00	432.22
588.00	386.97
589.00	404.13
590.00	411.15
591.00	433.78
592.00	425.20
593.00	424.42
594.00	436.90
595.00	429.10
596.00	398.67
597.00	405.69
598.00	408.03
599.00	425.20
600.00	387.75
601.00	379.95
602.00	380.73
603.00	392.43
604.00	386.19
605.00	383.07
606.00	433.78
607.00	451.72
608.00	454.84
609.00	415.84
610.00	419.74
611.00	418.18
612.00	433.00
613.00	425.20
614.00	408.03
615.00	392.43
616.00	406.47
617.00	404.13
618.00	402.57
619.00	392.43
620.00	435.34
621.00	440.80
622.00	440.80
623.00	418.96
624.00	406.47
625.00	404.13
626.00	432.22
627.00	433.78
628.00	447.04
629.00	444.70
630.00	447.82
631.00	454.84
632.00	427.54
633.00	440.02
634.00	427.54
635.00	431.44
636.00	436.12
637.00	429.10
638.00	429.88
639.00	429.10
640.00	444.70
641.00	442.36
642.00	459.53
643.00	446.26
644.00	443.14
645.00	414.27
646.00	418.96
647.00	418.18
648.00	418.18
649.00	408.81
650.00	433.78
651.00	443.92
652.00	425.98
653.00	403.35
654.00	457.96
655.00	488.39
656.00	493.07
657.00	437.68
658.00	438.46
659.00	437.68
660.00	429.10
661.00	401.79
662.00	408.03
663.00	397.11
664.00	404.13
665.00	408.03
666.00	404.91
667.00	429.10
668.00	430.66
669.00	436.90
670.00	409.59
671.00	395.55
672.00	419.74
673.00	422.08
674.00	436.12
675.00	411.93
676.00	411.93
677.00	393.21
678.00	408.81
679.00	434.56
680.00	429.10
681.00	429.10
682.00	418.18
683.00	426.76
684.00	436.90
685.00	415.84
686.00	406.47
687.00	390.09
688.00	411.93
689.00	415.06
690.00	405.69
691.00	384.63
692.00	396.33
693.00	439.24
694.00	455.62
695.00	463.43
696.00	443.14
697.00	440.02
698.00	445.48
699.00	434.56
700.00	442.36
701.00	429.10
702.00	429.88
703.00	424.42
704.00	426.76
705.00	437.68
706.00	434.56
707.00	444.70
708.00	438.46
709.00	440.02
710.00	418.96
711.00	404.13
712.00	404.13
713.00	386.19
714.00	386.19
715.00	397.11
716.00	436.12
717.00	415.06
718.00	467.33
719.00	456.40
720.00	487.61
721.00	438.46
722.00	440.02
723.00	431.44
724.00	411.93
725.00	419.74
726.00	418.18
727.00	422.86
728.00	417.40
729.00	452.50
730.00	486.83
731.00	494.63
732.00	484.49
733.00	484.49
734.00	494.63
735.00	493.07
736.00	504.00
737.00	516.48
738.00	535.20
739.00	486.05
740.00	440.80
741.00	425.98
742.00	454.84
743.00	472.79
744.00	449.38
745.00	403.35
746.00	421.30
747.00	426.76
748.00	447.82
749.00	429.88
750.00	410.37
751.00	389.31
752.00	374.49
753.00	382.29
754.00	428.32
755.00	445.48
756.00	468.11
757.00	444.70
758.00	434.56
759.00	439.24
760.00	454.06
761.00	454.84
762.00	443.92
763.00	447.04
764.00	465.77
765.00	447.82
766.00	451.72
767.00	431.44
768.00	449.38
769.00	454.84
770.00	463.43
771.00	457.96
772.00	424.42
773.00	431.44
774.00	418.96
775.00	423.64
776.00	416.62
777.00	437.68
778.00	454.84
779.00	475.13
780.00	501.65
781.00	532.86
782.00	554.71
783.00	627.26
784.00	600.74
785.00	597.62
786.00	500.87
787.00	475.91
788.00	415.84
789.00	391.65
790.00	413.49
791.00	427.54
792.00	479.81
793.00	461.09
794.00	447.04
795.00	421.30
796.00	439.24
797.00	476.69
798.00	491.51
799.00	477.47
800.00	442.36
801.00	404.91
802.00	416.62
803.00	449.38
804.00	462.65
805.00	447.82
806.00	429.10
807.00	411.93
808.00	415.84
809.00	400.23
810.00	422.86
811.00	400.23
812.00	380.73
813.00	376.83
814.00	388.53
815.00	400.23
816.00	395.55
817.00	418.96
818.00	417.40
819.00	410.37
820.00	392.43
821.00	443.14
822.00	483.71
823.00	518.82
824.00	516.48
825.00	470.45
826.00	442.36
827.00	409.59
828.00	429.10
829.00	435.34
830.00	461.09
831.00	470.45
832.00	479.03
833.00	471.23
834.00	495.41
835.00	524.28
836.00	521.16
837.00	464.21
838.00	428.32
839.00	428.32
840.00	439.24
841.00	450.94
842.00	443.92
843.00	455.62
844.00	449.38
845.00	466.55
846.00	468.11
847.00	464.21
848.00	442.36
849.00	436.12
850.00	429.88
851.00	438.46
852.00	438.46
853.00	414.27
854.00	416.62
855.00	393.21
856.00	401.01
857.00	430.66
858.00	457.18
859.00	472.01
860.00	435.34
861.00	430.66
862.00	451.72
863.00	461.87
864.00	483.71
865.00	476.69
866.00	469.67
867.00	436.90
868.00	386.19
869.00	368.24
870.00	370.58
871.00	390.87
872.00	399.45
873.00	404.91
874.00	417.40
875.00	440.80
876.00	455.62
877.00	460.31
878.00	464.21
879.00	442.36
880.00	423.64
881.00	401.01
882.00	415.06
883.00	437.68
884.00	459.53
885.00	461.87
886.00	505.56
887.00	490.73
888.00	487.61
889.00	433.00
890.00	429.10
891.00	446.26
892.00	446.26
893.00	436.90
894.00	411.15
895.00	424.42
896.00	430.66
897.00	425.20
898.00	419.74
899.00	427.54
900.00	433.00
901.00	457.96
902.00	475.91
903.00	546.91
904.00	638.97
905.00	730.25
906.00	799.68
907.00	757.55
908.00	729.47
909.00	979.12
910.00	1043.88
911.00	1095.37
912.00	855.08
913.00	839.47
914.00	782.52
915.00	697.48
916.00	596.06
917.00	556.27
918.00	488.39
919.00	457.18
920.00	409.59
921.00	417.40
922.00	436.12
923.00	457.18
924.00	489.95
925.00	489.17
926.00	495.41
927.00	464.21
928.00	458.75
929.00	460.31
930.00	471.23
931.00	483.71
932.00	471.23
933.00	485.27
934.00	464.21
935.00	468.89
936.00	437.68
937.00	454.06
938.00	443.92
939.00	448.60
940.00	444.70
941.00	472.79
942.00	496.19
943.00	650.67
944.00	1037.64
945.00	1863.85
946.00	2856.23
947.00	3630.95
948.00	3714.43
949.00	3214.34
950.00	2373.30
951.00	1607.95
952.00	1022.03
953.00	707.62
954.00	556.27
955.00	491.51
956.00	472.01
957.00	478.25
958.00	481.37
959.00	451.72
960.00	429.10
961.00	420.52
962.00	426.76
963.00	447.04
964.00	451.72
965.00	466.55
966.00	474.35
967.00	466.55
968.00	454.06
969.00	444.70
970.00	443.92
971.00	441.58
972.00	440.80
973.00	446.26
974.00	477.47
975.00	444.70
976.00	427.54
977.00	384.63
978.00	408.81
979.00	416.62
980.00	411.93
981.00	405.69
982.00	413.49
983.00	418.96
984.00	406.47
985.00	391.65
986.00	401.01
987.00	387.75
988.00	425.98
989.00	452.50
990.00	486.83
991.00	462.65
992.00	448.60
993.00	433.78
994.00	419.74
995.00	387.75
996.00	396.33
997.00	399.45
998.00	443.92
999.00	457.18
1000.00	492.29
1001.00	493.85
1002.00	501.65
1003.00	488.39
1004.00	464.21
1005.00	450.94
1006.00	442.36
1007.00	440.80
1008.00	447.04
1009.00	465.77
1010.00	493.07
1011.00	481.37
1012.00	446.26
1013.00	451.72
1014.00	453.28
1015.00	495.41
1016.00	471.23
1017.00	461.09
1018.00	427.54
1019.00	416.62
1020.00	423.64
1021.00	440.80
1022.00	429.88
1023.00	416.62
1024.00	412.71
1025.00	452.50
1026.00	482.15
1027.00	456.40
1028.00	422.86
1029.00	400.23
1030.00	436.12
1031.00	458.74
1032.00	464.99
1033.00	466.55
1034.00	469.67
1035.00	484.49
1036.00	456.40
1037.00	441.58
1038.00	428.32
1039.00	424.42
1040.00	433.00
1041.00	447.04
1042.00	489.17
1043.00	489.17
1044.00	486.05
1045.00	507.90
1046.00	528.18
1047.00	515.70
1048.00	464.99
1049.00	430.66
1050.00	429.88
1051.00	431.44
1052.00	459.53
1053.00	471.23
1054.00	500.87
1055.00	480.59
1056.00	475.91
1057.00	461.09
1058.00	487.61
1059.00	485.27
1060.00	471.23
1061.00	461.09
1062.00	451.72
1063.00	454.84
1064.00	441.58
1065.00	443.92
1066.00	442.36
1067.00	436.12
1068.00	460.31
1069.00	455.62
1070.00	468.89
1071.00	439.24
1072.00	431.44
1073.00	407.25
1074.00	398.67
1075.00	408.03
1076.00	424.42
1077.00	419.74
1078.00	431.44
1079.00	442.36
1080.00	481.37
1081.00	454.84
1082.00	444.70
1083.00	403.35
1084.00	393.99
1085.00	372.15
1086.00	412.71
1087.00	438.46
1088.00	445.48
1089.00	441.58
1090.00	447.04
1091.00	449.38
1092.00	442.36
1093.00	461.87
1094.00	472.79
1095.00	483.71
1096.00	459.53
1097.00	484.49
1098.00	485.27
1099.00	543.00
1100.00	574.99
1101.00	583.57
1102.00	565.63
1103.00	546.91
1104.00	539.10
1105.00	504.78
1106.00	468.11
1107.00	443.14
1108.00	425.98
1109.00	428.32
1110.00	434.56
1111.00	425.98
1112.00	422.86
1113.00	412.71
1114.00	459.53
1115.00	478.25
1116.00	500.09
1117.00	461.09
1118.00	438.46
1119.00	450.94
1120.00	496.97
1121.00	517.26
1122.00	507.12
1123.00	473.57
1124.00	464.99
1125.00	436.90
1126.00	432.22
1127.00	417.40
1128.00	442.36
1129.00	451.72
1130.00	450.94
1131.00	462.65
1132.00	453.28
1133.00	481.37
1134.00	474.35
1135.00	479.03
1136.00	442.36
1137.00	468.89
1138.00	479.81
1139.00	535.98
1140.00	511.02
1141.00	506.34
1142.00	475.91
1143.00	474.35
1144.00	480.59
1145.00	508.68
1146.00	511.02
1147.00	510.24
1148.00	505.56
1149.00	500.09
1150.00	495.41
1151.00	472.79
1152.00	492.29
1153.00	522.72
1154.00	561.73
1155.00	612.44
1156.00	680.32
1157.00	716.20
1158.00	692.02
1159.00	655.35
1160.00	602.30
1161.00	582.79
1162.00	559.39
1163.00	616.34
1164.00	733.37
1165.00	1002.53
1166.00	1372.33
1167.00	1678.16
1168.00	1714.83
1169.00	1531.49
1170.00	1258.43
1171.00	1034.52
1172.00	851.96
1173.00	715.42
1174.00	658.47
1175.00	616.34
1176.00	598.40
1177.00	571.87
1178.00	567.97
1179.00	550.03
1180.00	539.10
1181.00	543.78
1182.00	582.01
1183.00	618.68
1184.00	644.43
1185.00	656.13
1186.00	659.25
1187.00	650.67
1188.00	691.24
1189.00	706.06
1190.00	783.30
1191.00	819.97
1192.00	876.92
1193.00	862.10
1194.00	828.55
1195.00	808.26
1196.00	820.75
1197.00	848.83
1198.00	886.28
1199.00	958.84
1200.00	1149.20
1201.00	1371.55
1202.00	1504.96
1203.00	1519.01
1204.00	1377.02
1205.00	1281.83
1206.00	1143.74
1207.00	1139.84
1208.00	1107.07
1209.00	1126.58
1210.00	1110.97
1211.00	1191.33
1212.00	1301.34
1213.00	1491.70
1214.00	1707.81
1215.00	1995.70
1216.00	2516.08
1217.00	5709.35
1218.00	21202.91
1219.00	41966.59
1220.00	59952.04
1221.00	65535.00
1222.00	65535.00
1223.00	65535.00
1224.00	65535.00
1225.00	65303.29
1226.00	56223.57
1227.00	40595.03
1228.00	21968.27
1229.00	10720.43
1230.00	5429.26
1231.00	3166.74
1232.00	2255.50
1233.00	1881.01
1234.00	1710.15
1235.00	1661.78
1236.00	2140.81
1237.00	3786.21
1238.00	7078.56
1239.00	11495.93
1240.00	15165.89
1241.00	16222.25
1242.00	14540.97
1243.00	11165.92
1244.00	7724.55
1245.00	4805.12
1246.00	2826.59
1247.00	1745.26
1248.00	1192.89
1249.00	964.30
1250.00	875.36
1251.00	932.31
1252.00	1062.60
1253.00	1189.77
1254.00	1261.55
1255.00	1256.09
1256.00	1194.45
1257.00	1099.27
1258.00	998.63
1259.00	934.65
1260.00	877.70
1261.00	867.56
1262.00	853.52
1263.00	869.90
1264.00	794.22
1265.00	785.64
1266.00	745.85
1267.00	787.98
1268.00	773.94
1269.00	770.04
1270.00	763.79
1271.00	760.67
1272.00	765.36
1273.00	784.08
1274.00	834.79
1275.00	1217.86
1276.00	2954.54
1277.00	7164.38
1278.00	14630.69
1279.00	22978.60
1280.00	28610.71
1281.00	28756.60
1282.00	24457.04
1283.00	17987.02
1284.00	11756.51
1285.00	6776.63
1286.00	3706.63
1287.00	2104.92
1288.00	1320.84
1289.00	993.95
1290.00	862.88
1291.00	848.83
1292.00	848.05
1293.00	896.43
1294.00	915.93
1295.00	1125.80
1296.00	1685.19
1297.00	2893.68
1298.00	4635.04
1299.00	6182.13
1300.00	6863.23
1301.00	6348.31
1302.00	5144.50
1303.00	3733.15
1304.00	2508.27
1305.00	1639.16
1306.00	1167.93
1307.00	967.42
1308.00	886.28
1309.00	820.75
1310.00	777.84
1311.00	703.72
1312.00	670.95
1313.00	611.66
1314.00	582.01
1315.00	550.81
1316.00	552.37
1317.00	536.76
1318.00	563.29
1319.00	555.49
1320.00	568.75
1321.00	516.48
1322.00	516.48
1323.00	514.14
1324.00	543.00
1325.00	573.43
1326.00	592.94
1327.00	603.86
1328.00	612.44
1329.00	667.05
1330.00	1011.89
1331.00	1911.44
1332.00	3512.36
1333.00	5434.72
1334.00	6939.69
1335.00	7350.06
1336.00	6644.00
1337.00	5206.13
1338.00	3666.84
1339.00	2388.91
1340.00	1500.28
1341.00	1049.34
1342.00	793.44
1343.00	695.92
1344.00	620.24
1345.00	600.74
1346.00	606.98
1347.00	620.24
1348.00	656.13
1349.00	669.39
1350.00	683.44
1351.00	688.12
1352.00	674.07
1353.00	692.02
1354.00	674.07
1355.00	719.32
1356.00	750.53
1357.00	845.71
1358.00	1410.56
1359.00	3449.17
1360.00	7737.81
1361.00	14185.99
1362.00	20512.45
1363.00	24063.05
1364.00	22983.28
1365.00	19036.36
1366.00	13564.18
1367.00	8853.47
1368.00	5067.26
1369.00	2940.49
1370.00	1923.92
1371.00	1486.24
1372.00	2204.00
1373.00	5511.18
1374.00	12875.29
1375.00	24312.70
1376.00	35505.15
1377.00	41882.33
1378.00	40520.91
1379.00	34085.22
1380.00	24875.21
1381.00	16203.53
1382.00	9076.60
1383.00	4873.00
1384.00	2665.09
1385.00	1629.79
1386.00	1149.98
1387.00	928.41
1388.00	860.54
1389.00	836.35
1390.00	858.20
1391.00	812.95
1392.00	794.22
1393.00	797.34
1394.00	915.93
1395.00	1093.03
1396.00	1398.08
1397.00	1654.76
1398.00	1834.98
1399.00	1855.26
1400.00	1790.51
1401.00	1708.59
1402.00	2207.91
1403.00	5702.33
1404.00	14922.48
1405.00	30739.82
1406.00	46611.77
1407.00	57103.61
1408.00	58958.09
1409.00	54616.40
1410.00	44711.25
1411.00	31524.68
1412.00	18828.05
1413.00	10027.64
1414.00	5306.77
1415.00	3043.48
1416.00	2452.88
1417.00	3605.99
1418.00	6677.55
1419.00	11210.39
1420.00	15449.88
1421.00	17435.43
1422.00	16387.65
1423.00	13375.38
1424.00	9674.21
1425.00	6340.51
1426.00	3754.22
1427.00	2200.88
1428.00	1422.27
1429.00	1037.64
1430.00	907.35
1431.00	820.75
1432.00	795.78
1433.00	780.18
1434.00	776.28
1435.00	770.04
1436.00	732.59
1437.00	701.38
1438.00	658.47
1439.00	609.32
1440.00	621.02
1441.00	621.02
1442.00	613.22
1443.00	605.42
1444.00	593.72
1445.00	583.57
1446.00	560.17
1447.00	586.69
1448.00	624.14
1449.00	647.55
1450.00	704.50
1451.00	977.56
1452.00	1881.01
1453.00	3603.64
1454.00	6152.49
1455.00	8691.19
1456.00	10095.51
1457.00	9859.12
1458.00	8424.37
1459.00	6395.12
1460.00	4397.09
1461.00	2686.15
1462.00	1629.01
1463.00	1101.61
1464.00	801.24
1465.00	695.14
1466.00	615.56
1467.00	598.40
1468.00	570.31
1469.00	573.43
1470.00	571.87
1471.00	590.60
1472.00	578.11
1473.00	580.45
1474.00	582.01
1475.00	583.57
1476.00	581.23
1477.00	611.66
1478.00	656.13
1479.00	674.07
1480.00	670.95
1481.00	685.00
1482.00	770.82
1483.00	1153.10
1484.00	3128.52
1485.00	7640.29
1486.00	15790.03
1487.00	25448.64
1488.00	33351.07
1489.00	35447.41
1490.00	31990.44
1491.00	25086.64
1492.00	17495.50
1493.00	10774.27
1494.00	5890.35
1495.00	3173.77
1496.00	1834.98
1497.00	1203.82
1498.00	894.08
1499.00	787.20
1500.00	713.08
1501.00	682.66
1502.00	623.36
1503.00	572.65
1504.00	550.03
1505.00	560.95
1506.00	604.64
1507.00	628.82
1508.00	697.48
1509.00	973.66
1510.00	1808.45
1511.00	3315.76
1512.00	5585.30
1513.00	7636.39
1514.00	8787.93
1515.00	8474.30
1516.00	7252.54
1517.00	5526.00
1518.00	3817.41
1519.00	2439.62
1520.00	1587.66
1521.00	1159.35
1522.00	922.95
1523.00	817.63
1524.00	749.75
1525.00	723.23
1526.00	731.81
1527.00	791.10
1528.00	1031.40
1529.00	2024.56
1530.00	4573.41
1531.00	9311.43
1532.00	15700.31
1533.00	21215.40
1534.00	23658.92
1535.00	22075.93
1536.00	18126.67
1537.00	13110.12
1538.00	8572.60
1539.00	5004.07
1540.00	2850.77
1541.00	1710.93
1542.00	1172.61
1543.00	940.90
1544.00	812.17
1545.00	762.23
1546.00	751.31
1547.00	715.42
1548.00	695.14
1549.00	687.34
1550.00	692.02
1551.00	691.24
1552.00	697.48
1553.00	720.88
1554.00	732.59
1555.00	734.93
1556.00	741.17
1557.00	805.14
1558.00	826.99
1559.00	884.72
1560.00	977.56
1561.00	1722.63
1562.00	4634.26
1563.00	11169.82
1564.00	21905.07
1565.00	33758.33
1566.00	42241.99
1567.00	43601.06
1568.00	38983.18
1569.00	30748.40
1570.00	21726.41
1571.00	13506.45
1572.00	7577.09
1573.00	4382.26
1574.00	3844.72
1575.00	7627.81
1576.00	17293.44
1577.00	32888.43
1578.00	47641.60
1579.00	57046.66
1580.00	58286.36
1581.00	54427.60
1582.00	45427.46
1583.00	33136.52
1584.00	20427.42
1585.00	11197.12
1586.00	5907.51
1587.00	3293.91
1588.00	1969.95
1589.00	1347.37
1590.00	1025.15
1591.00	912.03
1592.00	826.99
1593.00	794.22
1594.00	728.69
1595.00	710.74
1596.00	698.26
1597.00	677.98
1598.00	652.23
1599.00	624.14
1600.00	638.97
1601.00	645.99
1602.00	619.46
1603.00	605.42
1604.00	580.45
1605.00	584.35
1606.00	567.97
1607.00	585.13
1608.00	573.43
1609.00	550.03
1610.00	557.83
1611.00	587.47
1612.00	597.62
1613.00	588.25
1614.00	580.45
1615.00	607.76
1616.00	619.46
1617.00	587.47
1618.00	572.65
1619.00	519.60
1620.00	546.12
1621.00	529.74
1622.00	563.29
1623.00	557.83
1624.00	594.50
1625.00	597.62
1626.00	601.52
1627.00	606.20
1628.00	635.07
1629.00	642.09
1630.00	614.00
1631.00	589.81
1632.00	571.87
1633.00	574.99
1634.00	568.75
1635.00	589.81
1636.00	600.74
1637.00	614.00
1638.00	610.88
1639.00	598.40
1640.00	593.72
1641.00	622.58
1642.00	678.76
1643.00	717.76
1644.00	788.76
1645.00	1306.02
1646.00	3426.54
1647.00	8092.01
1648.00	16099.76
1649.00	25363.61
1650.00	32689.48
1651.00	34781.92
1652.00	32066.12
1653.00	26132.86
1654.00	19078.49
1655.00	12283.13
1656.00	7025.51
1657.00	3890.75
1658.00	2208.69
1659.00	1421.49
1660.00	1029.84
1661.00	857.42
1662.00	797.34
1663.00	886.28
1664.00	1466.74
1665.00	2876.52
1666.00	5284.15
1667.00	8419.69
1668.00	11065.27
1669.00	12255.83
1670.00	11566.15
1671.00	9740.53
1672.00	7385.17
1673.00	5084.42
1674.00	3183.13
1675.00	1934.06
1676.00	1210.84
1677.00	845.71
1678.00	672.51
1679.00	591.38
1680.00	551.59
1681.00	525.84
1682.00	527.40
1683.00	506.34
1684.00	520.38
1685.00	515.70
1686.00	505.56
1687.00	488.39
1688.00	481.37
1689.00	533.64
1690.00	530.52
1691.00	535.98
1692.00	525.84
1693.00	525.06
1694.00	518.82
1695.00	499.31
1696.00	528.96
1697.00	528.96
1698.00	540.66
1699.00	547.69
1700.00	568.75
1701.00	554.71
1702.00	524.28
1703.00	518.82
1704.00	544.56
1705.00	557.05
1706.00	567.97
1707.00	585.91
1708.00	647.55
1709.00	929.19
1710.00	1927.04
1711.00	4113.10
1712.00	7765.12
1713.00	12164.54
1714.00	15763.51
1715.00	17067.97
1716.00	15983.52
1717.00	13288.00
1718.00	10058.06
1719.00	6814.08
1720.00	4236.37
1721.00	2487.99
1722.00	1551.00
1723.00	1049.34
1724.00	773.94
1725.00	636.63
1726.00	592.16
1727.00	597.62
1728.00	557.83
1729.00	528.96
1730.00	521.94
1731.00	509.46
1732.00	495.41
1733.00	492.29
1734.00	516.48
1735.00	527.40
1736.00	514.14
1737.00	503.22
1738.00	513.36
1739.00	514.14
1740.00	516.48
1741.00	520.38
1742.00	517.26
1743.00	501.65
1744.00	464.21
1745.00	473.57
1746.00	492.29
1747.00	507.90
1748.00	526.62
1749.00	540.66
1750.00	542.22
1751.00	546.12
1752.00	564.07
1753.00	589.03
1754.00	582.79
1755.00	578.11
1756.00	585.91
1757.00	617.12
1758.00	624.14
1759.00	629.60
1760.00	601.52
1761.00	591.38
1762.00	614.00
1763.00	719.32
1764.00	858.98
1765.00	1545.53
1766.00	3782.31
1767.00	8142.72
1768.00	15002.05
1769.00	22555.74
1770.00	28459.35
1771.00	30137.52
1772.00	27753.29
1773.00	22721.92
1774.00	16694.26
1775.00	11012.22
1776.00	6540.24
1777.00	3776.84
1778.00	2192.30
1779.00	1405.10
1780.00	1008.77
1781.00	768.48
1782.00	659.25
1783.00	599.96
1784.00	626.48
1785.00	628.04
1786.00	626.48
1787.00	597.62
1788.00	586.69
1789.00	576.55
1790.00	606.20
1791.00	652.23
1792.00	812.95
1793.00	1561.92
1794.00	3449.17
1795.00	6837.49
1796.00	11530.26
1797.00	15927.35
1798.00	18497.25
1799.00	18273.34
1800.00	16025.65
1801.00	12605.35
1802.00	8975.95
1803.00	5781.90
1804.00	3517.83
1805.00	2104.92
1806.00	1327.08
1807.00	924.51
1808.00	762.23
1809.00	635.85
1810.00	601.52
1811.00	550.03
1812.00	555.49
1813.00	545.34
1814.00	541.44
1815.00	518.82
1816.00	508.68
1817.00	491.51
1818.00	501.65
1819.00	503.22
1820.00	532.08
1821.00	556.27
1822.00	611.66
1823.00	644.43
1824.00	670.17
1825.00	671.73
1826.00	652.23
1827.00	629.60
1828.00	575.77
1829.00	539.10
1830.00	515.70
1831.00	480.59
1832.00	466.55
1833.00	429.10
1834.00	452.50
1835.00	462.65
1836.00	461.87
1837.00	451.72
1838.00	435.34
1839.00	440.02
1840.00	453.28
1841.00	465.77
1842.00	503.22
1843.00	495.41
1844.00	477.47
1845.00	461.09
1846.00	444.70
1847.00	443.92
1848.00	441.58
1849.00	443.92
1850.00	450.16
1851.00	438.46
1852.00	435.34
1853.00	424.42
1854.00	413.49
1855.00	429.88
1856.00	458.75
1857.00	479.81
1858.00	451.72
1859.00	418.18
1860.00	429.10
1861.00	440.02
1862.00	433.00
1863.00	436.12
1864.00	433.00
1865.00	437.68
1866.00	397.89
1867.00	411.93
1868.00	443.92
1869.00	438.46
1870.00	431.44
1871.00	404.13
1872.00	442.36
1873.00	435.34
1874.00	463.43
1875.00	459.53
1876.00	456.40
1877.00	464.21
1878.00	462.65
1879.00	459.53
1880.00	433.78
1881.00	418.18
1882.00	433.78
1883.00	429.10
1884.00	421.30
1885.00	426.76
1886.00	454.84
1887.00	471.23
1888.00	458.75
1889.00	436.12
1890.00	429.10
1891.00	445.48
1892.00	450.16
1893.00	447.04
1894.00	432.22
1895.00	429.10
1896.00	443.92
1897.00	449.38
1898.00	454.84
1899.00	441.58
1900.00	449.38
1901.00	425.98
1902.00	431.44
1903.00	455.62
1904.00	489.17
1905.00	507.90
1906.00	503.22
1907.00	534.42
1908.00	588.25
1909.00	649.11
1910.00	667.05
1911.00	638.97
1912.00	571.87
1913.00	541.44
1914.00	527.40
1915.00	528.96
1916.00	510.24
1917.00	481.37
1918.00	458.75
1919.00	448.60
1920.00	475.91
1921.00	493.07
1922.00	486.05
1923.00	446.26
1924.00	436.90
1925.00	460.31
1926.00	468.89
1927.00	450.94
1928.00	437.68
1929.00	428.32
1930.00	446.26
1931.00	448.60
1932.00	475.13
1933.00	461.09
1934.00	460.31
1935.00	463.43
1936.00	471.23
1937.00	422.08
1938.00	418.18
1939.00	439.24
1940.00	496.19
1941.00	512.58
1942.00	517.26
1943.00	521.16
1944.00	520.38
1945.00	523.50
1946.00	589.03
1947.00	923.73
1948.00	2043.29
1949.00	4087.36
1950.00	7153.46
1951.00	10611.21
1952.00	13490.07
1953.00	14512.10
1954.00	13671.07
1955.00	11659.77
1956.00	9273.20
1957.00	6858.55
1958.00	4709.16
1959.00	3155.04
1960.00	2108.82
1961.00	1437.09
1962.00	1059.48
1963.00	820.75
1964.00	711.52
1965.00	611.66
1966.00	560.17
1967.00	509.46
1968.00	486.05
1969.00	484.49
1970.00	472.79
1971.00	467.33
1972.00	476.69
1973.00	538.32
1974.00	582.79
1975.00	647.55
1976.00	720.88
1977.00	900.33
1978.00	1101.61
1979.00	1248.29
1980.00	1238.14
1981.00	1160.13
1982.00	1044.66
1983.00	968.20
1984.00	851.96
1985.00	737.27
1986.00	624.14
1987.00	574.99
1988.00	533.64
1989.00	556.27
1990.00	528.96
1991.00	538.32
1992.00	503.22
1993.00	498.53
1994.00	480.59
1995.00	480.59
1996.00	470.45
1997.00	463.43
1998.00	430.66
1999.00	429.10
2000.00	430.66
2001.00	477.47
2002.00	529.74
2003.00	558.61
2004.00	535.20
2005.00	494.63
2006.00	469.67
2007.00	482.93
2008.00	481.37
2009.00	488.39
2010.00	489.17
2011.00	490.73
2012.00	519.60
2013.00	532.86
2014.00	568.75
2015.00	539.88
2016.00	541.44
2017.00	511.02
2018.00	555.49
2019.00	638.97
2020.00	798.90
2021.00	983.81
2022.00	1184.31
2023.00	1415.24
2024.00	1954.35
2025.00	3522.51
2026.00	6714.22
2027.00	11879.78
2028.00	18704.78
2029.00	25284.81
2030.00	29637.42
2031.00	30121.13
2032.00	27935.85
2033.00	23910.13
2034.00	19057.42
2035.00	13966.76
2036.00	9552.51
2037.00	6266.39
2038.00	3979.69
2039.00	2482.53
2040.00	1628.23
2041.00	1137.50
2042.00	898.77
2043.00	773.16
2044.00	682.66
2045.00	629.60
2046.00	623.36
2047.00	662.37
>>>>>End Processed Spectral Data<<<<<
