SpectraSuite Data File
++++++++++++++++++++++++++++++++++++
Date: Thu Nov 16 13:55:15 EST 2017
User: cheriyan
Dark Spectrum Present: No
Reference Spectrum Present: No
Number of Sampled Component Spectra: 1
Spectrometers: USB2+H05261
Integration Time (usec): 100000 (USB2+H05261)
Spectra Averaged: 1 (USB2+H05261)
Boxcar Smoothing: 1 (USB2+H05261)
Correct for Electrical Dark: No (USB2+H05261)
Strobe/Lamp Enabled: No (USB2+H05261)
Correct for Detector Non-linearity: No (USB2+H05261)
Correct for Stray Light: No (USB2+H05261)
Number of Pixels in Processed Spectrum: 2048
>>>>>Begin Processed Spectral Data<<<<<
0.00	353.42
1.00	353.42
2.00	330.02
3.00	301.93
4.00	289.45
5.00	258.24
6.00	240.30
7.00	234.05
8.00	254.34
9.00	279.30
10.00	258.24
11.00	259.02
12.00	227.03
13.00	224.69
14.00	235.61
15.00	236.39
16.00	234.05
17.00	234.05
18.00	269.94
19.00	299.59
20.00	307.39
21.00	294.91
22.00	308.95
23.00	317.53
24.00	337.82
25.00	327.68
26.00	351.86
27.00	379.17
28.00	392.43
29.00	376.05
30.00	354.98
31.00	348.74
32.00	340.94
33.00	339.38
34.00	346.40
35.00	360.44
36.00	397.89
37.00	418.18
38.00	414.27
39.00	387.75
40.00	408.81
41.00	446.26
42.00	448.60
43.00	431.44
44.00	419.74
45.00	436.90
46.00	430.66
47.00	425.98
48.00	401.01
49.00	403.35
50.00	400.23
51.00	434.56
52.00	433.00
53.00	447.82
54.00	436.12
55.00	425.98
56.00	425.98
57.00	429.10
58.00	434.56
59.00	410.37
60.00	411.15
61.00	417.40
62.00	421.30
63.00	427.54
64.00	392.43
65.00	397.89
66.00	396.33
67.00	424.42
68.00	422.86
69.00	400.23
70.00	415.84
71.00	416.62
72.00	440.02
73.00	414.27
74.00	415.06
75.00	404.91
76.00	404.91
77.00	395.55
78.00	397.89
79.00	421.30
80.00	425.20
81.00	405.69
82.00	402.57
83.00	380.73
84.00	363.56
85.00	336.26
86.00	340.94
87.00	379.95
88.00	417.40
89.00	433.78
90.00	430.66
91.00	430.66
92.00	443.14
93.00	421.30
94.00	379.95
95.00	355.76
96.00	354.20
97.00	372.15
98.00	401.01
99.00	411.93
100.00	413.49
101.00	396.33
102.00	417.40
103.00	437.68
104.00	416.62
105.00	384.63
106.00	360.44
107.00	402.57
108.00	404.91
109.00	415.06
110.00	379.17
111.00	375.27
112.00	390.87
113.00	380.73
114.00	380.73
115.00	357.32
116.00	384.63
117.00	396.33
118.00	393.99
119.00	390.09
120.00	398.67
121.00	421.30
122.00	436.12
123.00	430.66
124.00	378.39
125.00	349.52
126.00	358.10
127.00	413.49
128.00	441.58
129.00	446.26
130.00	429.10
131.00	392.43
132.00	366.68
133.00	383.07
134.00	407.25
135.00	453.28
136.00	457.18
137.00	448.60
138.00	419.74
139.00	410.37
140.00	424.42
141.00	408.81
142.00	397.11
143.00	399.45
144.00	400.23
145.00	412.71
146.00	443.14
147.00	457.18
148.00	461.09
149.00	438.46
150.00	434.56
151.00	420.52
152.00	405.69
153.00	422.08
154.00	440.02
155.00	447.04
156.00	437.68
157.00	418.96
158.00	419.74
159.00	393.21
160.00	385.41
161.00	363.56
162.00	399.45
163.00	418.18
164.00	432.22
165.00	432.22
166.00	401.01
167.00	418.18
168.00	393.21
169.00	435.34
170.00	403.35
171.00	415.84
172.00	408.81
173.00	437.68
174.00	454.06
175.00	438.46
176.00	441.58
177.00	431.44
178.00	445.48
179.00	424.42
180.00	418.96
181.00	411.93
182.00	423.64
183.00	422.86
184.00	419.74
185.00	404.91
186.00	403.35
187.00	408.81
188.00	408.81
189.00	398.67
190.00	393.21
191.00	400.23
192.00	423.64
193.00	426.76
194.00	447.04
195.00	490.73
196.00	538.32
197.00	532.08
198.00	500.87
199.00	462.65
200.00	467.33
201.00	462.65
202.00	452.50
203.00	458.74
204.00	449.38
205.00	440.80
206.00	409.59
207.00	396.33
208.00	417.40
209.00	417.40
210.00	433.78
211.00	420.52
212.00	426.76
213.00	410.37
214.00	408.03
215.00	404.13
216.00	380.73
217.00	387.75
218.00	391.65
219.00	420.52
220.00	413.49
221.00	430.66
222.00	425.20
223.00	417.40
224.00	383.85
225.00	394.77
226.00	390.09
227.00	412.71
228.00	396.33
229.00	417.40
230.00	407.25
231.00	418.18
232.00	393.21
233.00	418.18
234.00	415.84
235.00	418.18
236.00	415.06
237.00	424.42
238.00	400.23
239.00	364.34
240.00	363.56
241.00	391.65
242.00	425.20
243.00	408.03
244.00	407.25
245.00	394.77
246.00	410.37
247.00	421.30
248.00	417.40
249.00	393.99
250.00	383.85
251.00	414.27
252.00	440.80
253.00	460.31
254.00	438.46
255.00	440.80
256.00	424.42
257.00	425.20
258.00	411.93
259.00	425.20
260.00	413.49
261.00	414.27
262.00	390.09
263.00	413.49
264.00	439.24
265.00	478.25
266.00	479.03
267.00	480.59
268.00	508.68
269.00	545.34
270.00	557.83
271.00	568.75
272.00	583.57
273.00	598.40
274.00	591.38
275.00	584.35
276.00	617.90
277.00	624.14
278.00	609.32
279.00	525.84
280.00	472.01
281.00	436.12
282.00	425.20
283.00	408.03
284.00	383.85
285.00	365.12
286.00	352.64
287.00	391.65
288.00	412.71
289.00	403.35
290.00	385.41
291.00	369.80
292.00	400.23
293.00	391.65
294.00	418.18
295.00	398.67
296.00	394.77
297.00	393.99
298.00	417.40
299.00	425.20
300.00	410.37
301.00	414.27
302.00	425.98
303.00	417.40
304.00	401.01
305.00	397.89
306.00	458.75
307.00	533.64
308.00	608.54
309.00	654.57
310.00	662.37
311.00	630.38
312.00	574.99
313.00	508.68
314.00	468.11
315.00	452.50
316.00	446.26
317.00	461.09
318.00	440.80
319.00	443.14
320.00	435.34
321.00	433.00
322.00	405.69
323.00	385.41
324.00	379.17
325.00	392.43
326.00	370.58
327.00	391.65
328.00	421.30
329.00	440.02
330.00	415.06
331.00	401.01
332.00	409.59
333.00	434.56
334.00	428.32
335.00	415.84
336.00	422.86
337.00	425.98
338.00	461.87
339.00	438.46
340.00	435.34
341.00	393.99
342.00	393.99
343.00	425.20
344.00	468.11
345.00	482.15
346.00	537.54
347.00	590.60
348.00	696.70
349.00	707.62
350.00	705.28
351.00	647.55
352.00	606.20
353.00	567.97
354.00	538.32
355.00	511.02
356.00	489.95
357.00	471.23
358.00	454.84
359.00	437.68
360.00	450.16
361.00	458.74
362.00	451.72
363.00	426.76
364.00	402.57
365.00	428.32
366.00	435.34
367.00	422.08
368.00	422.86
369.00	415.84
370.00	425.20
371.00	411.93
372.00	427.54
373.00	431.44
374.00	425.20
375.00	422.08
376.00	433.78
377.00	406.47
378.00	393.99
379.00	383.07
380.00	402.57
381.00	385.41
382.00	366.68
383.00	370.58
384.00	387.75
385.00	426.76
386.00	441.58
387.00	443.14
388.00	427.54
389.00	425.98
390.00	436.12
391.00	440.80
392.00	441.58
393.00	443.14
394.00	450.16
395.00	441.58
396.00	456.40
397.00	461.87
398.00	458.74
399.00	435.34
400.00	432.22
401.00	447.04
402.00	433.00
403.00	404.91
404.00	391.65
405.00	425.20
406.00	447.04
407.00	446.26
408.00	436.12
409.00	423.64
410.00	404.13
411.00	418.96
412.00	443.92
413.00	444.70
414.00	413.49
415.00	402.57
416.00	415.84
417.00	423.64
418.00	404.13
419.00	399.45
420.00	397.11
421.00	397.11
422.00	397.89
423.00	397.89
424.00	419.74
425.00	424.42
426.00	447.04
427.00	445.48
428.00	437.68
429.00	436.90
430.00	422.08
431.00	437.68
432.00	421.30
433.00	400.23
434.00	396.33
435.00	400.23
436.00	435.34
437.00	436.90
438.00	429.10
439.00	423.64
440.00	412.71
441.00	431.44
442.00	427.54
443.00	435.34
444.00	433.00
445.00	457.18
446.00	460.31
447.00	450.16
448.00	416.62
449.00	418.18
450.00	416.62
451.00	434.56
452.00	431.44
453.00	434.56
454.00	434.56
455.00	449.38
456.00	454.06
457.00	426.76
458.00	400.23
459.00	375.27
460.00	406.47
461.00	415.06
462.00	426.76
463.00	422.86
464.00	426.76
465.00	438.46
466.00	441.58
467.00	441.58
468.00	450.94
469.00	457.96
470.00	449.38
471.00	420.52
472.00	403.35
473.00	417.40
474.00	422.08
475.00	414.27
476.00	422.86
477.00	410.37
478.00	397.11
479.00	408.03
480.00	438.46
481.00	426.76
482.00	398.67
483.00	378.39
484.00	411.15
485.00	404.91
486.00	409.59
487.00	405.69
488.00	415.84
489.00	422.08
490.00	409.59
491.00	414.27
492.00	430.66
493.00	468.11
494.00	481.37
495.00	466.55
496.00	448.60
497.00	438.46
498.00	420.52
499.00	407.25
500.00	390.87
501.00	410.37
502.00	415.84
503.00	400.23
504.00	408.81
505.00	408.81
506.00	433.78
507.00	425.20
508.00	440.02
509.00	429.10
510.00	421.30
511.00	415.84
512.00	414.27
513.00	441.58
514.00	432.22
515.00	451.72
516.00	429.10
517.00	425.98
518.00	436.90
519.00	409.59
520.00	418.18
521.00	386.19
522.00	418.18
523.00	417.40
524.00	437.68
525.00	428.32
526.00	418.18
527.00	396.33
528.00	400.23
529.00	393.99
530.00	408.81
531.00	402.57
532.00	431.44
533.00	454.06
534.00	480.59
535.00	459.53
536.00	457.18
537.00	445.48
538.00	433.00
539.00	393.99
540.00	407.25
541.00	433.00
542.00	454.06
543.00	437.68
544.00	437.68
545.00	444.70
546.00	440.80
547.00	441.58
548.00	458.75
549.00	468.11
550.00	464.99
551.00	425.98
552.00	400.23
553.00	401.79
554.00	429.10
555.00	454.84
556.00	473.57
557.00	469.67
558.00	449.38
559.00	413.49
560.00	392.43
561.00	404.13
562.00	428.32
563.00	433.78
564.00	446.26
565.00	449.38
566.00	435.34
567.00	440.80
568.00	400.23
569.00	414.27
570.00	396.33
571.00	422.08
572.00	428.32
573.00	418.18
574.00	443.92
575.00	438.46
576.00	440.80
577.00	417.40
578.00	419.74
579.00	415.84
580.00	414.27
581.00	422.08
582.00	429.10
583.00	433.78
584.00	430.66
585.00	432.22
586.00	433.00
587.00	436.12
588.00	440.02
589.00	438.46
590.00	433.78
591.00	443.92
592.00	457.96
593.00	477.47
594.00	456.40
595.00	428.32
596.00	390.09
597.00	384.63
598.00	380.73
599.00	403.35
600.00	429.88
601.00	407.25
602.00	397.11
603.00	376.05
604.00	425.20
605.00	416.62
606.00	440.80
607.00	424.42
608.00	453.28
609.00	426.76
610.00	422.86
611.00	400.23
612.00	397.11
613.00	402.57
614.00	416.62
615.00	456.40
616.00	470.45
617.00	466.55
618.00	436.12
619.00	418.96
620.00	413.49
621.00	417.40
622.00	441.58
623.00	445.48
624.00	440.02
625.00	402.57
626.00	393.21
627.00	391.65
628.00	440.80
629.00	457.96
630.00	459.53
631.00	426.76
632.00	403.35
633.00	403.35
634.00	402.57
635.00	388.53
636.00	418.18
637.00	415.06
638.00	418.96
639.00	397.89
640.00	403.35
641.00	427.54
642.00	417.40
643.00	415.84
644.00	410.37
645.00	414.27
646.00	411.93
647.00	415.06
648.00	396.33
649.00	411.93
650.00	419.74
651.00	432.22
652.00	421.30
653.00	422.08
654.00	479.03
655.00	489.17
656.00	489.95
657.00	431.44
658.00	425.20
659.00	415.06
660.00	428.32
661.00	404.91
662.00	429.10
663.00	436.90
664.00	418.96
665.00	390.09
666.00	383.85
667.00	429.88
668.00	435.34
669.00	429.10
670.00	399.45
671.00	387.75
672.00	397.11
673.00	438.46
674.00	450.16
675.00	464.99
676.00	450.94
677.00	447.82
678.00	417.40
679.00	424.42
680.00	430.66
681.00	436.12
682.00	425.98
683.00	428.32
684.00	414.27
685.00	393.99
686.00	370.58
687.00	376.83
688.00	389.31
689.00	378.39
690.00	389.31
691.00	426.76
692.00	468.89
693.00	486.83
694.00	451.72
695.00	437.68
696.00	433.78
697.00	456.40
698.00	477.47
699.00	454.84
700.00	418.96
701.00	391.65
702.00	398.67
703.00	412.71
704.00	434.56
705.00	428.32
706.00	422.86
707.00	391.65
708.00	392.43
709.00	379.95
710.00	398.67
711.00	420.52
712.00	441.58
713.00	432.22
714.00	425.20
715.00	440.80
716.00	475.13
717.00	495.41
718.00	528.18
719.00	496.19
720.00	483.71
721.00	459.53
722.00	455.62
723.00	443.14
724.00	432.22
725.00	450.16
726.00	454.84
727.00	457.18
728.00	456.40
729.00	468.11
730.00	436.12
731.00	425.98
732.00	427.54
733.00	450.16
734.00	454.84
735.00	461.09
736.00	486.05
737.00	497.75
738.00	499.31
739.00	499.31
740.00	495.41
741.00	474.35
742.00	461.09
743.00	486.83
744.00	478.25
745.00	455.62
746.00	408.81
747.00	409.59
748.00	419.74
749.00	406.47
750.00	422.08
751.00	421.30
752.00	440.02
753.00	408.81
754.00	423.64
755.00	427.54
756.00	459.53
757.00	461.87
758.00	466.55
759.00	469.67
760.00	475.91
761.00	474.35
762.00	482.93
763.00	469.67
764.00	507.90
765.00	507.90
766.00	473.57
767.00	443.92
768.00	412.71
769.00	434.56
770.00	411.15
771.00	419.74
772.00	433.78
773.00	433.78
774.00	438.46
775.00	430.66
776.00	442.36
777.00	442.36
778.00	478.25
779.00	489.17
780.00	511.02
781.00	538.32
782.00	559.39
783.00	656.13
784.00	624.14
785.00	612.44
786.00	522.72
787.00	497.75
788.00	508.68
789.00	457.96
790.00	452.50
791.00	416.62
792.00	414.27
793.00	401.01
794.00	418.18
795.00	429.10
796.00	440.80
797.00	433.78
798.00	451.72
799.00	457.96
800.00	463.43
801.00	459.53
802.00	461.09
803.00	455.62
804.00	435.34
805.00	432.22
806.00	448.60
807.00	474.35
808.00	465.77
809.00	438.46
810.00	441.58
811.00	446.26
812.00	432.22
813.00	411.15
814.00	398.67
815.00	398.67
816.00	401.79
817.00	393.21
818.00	405.69
819.00	407.25
820.00	429.88
821.00	479.03
822.00	515.70
823.00	497.75
824.00	488.39
825.00	447.82
826.00	474.35
827.00	454.06
828.00	477.47
829.00	455.62
830.00	473.57
831.00	466.55
832.00	482.93
833.00	463.43
834.00	461.09
835.00	457.96
836.00	469.67
837.00	464.21
838.00	471.23
839.00	449.38
840.00	451.72
841.00	424.42
842.00	433.78
843.00	460.31
844.00	491.51
845.00	474.35
846.00	446.26
847.00	404.91
848.00	416.62
849.00	433.00
850.00	443.14
851.00	436.12
852.00	405.69
853.00	410.37
854.00	406.47
855.00	422.86
856.00	431.44
857.00	440.80
858.00	475.13
859.00	485.27
860.00	483.71
861.00	453.28
862.00	458.75
863.00	458.74
864.00	431.44
865.00	414.27
866.00	404.91
867.00	431.44
868.00	414.27
869.00	425.98
870.00	418.18
871.00	449.38
872.00	429.10
873.00	429.88
874.00	396.33
875.00	430.66
876.00	453.28
877.00	486.83
878.00	478.25
879.00	441.58
880.00	443.14
881.00	456.40
882.00	466.55
883.00	467.33
884.00	454.06
885.00	468.89
886.00	464.99
887.00	484.49
888.00	498.53
889.00	497.75
890.00	493.85
891.00	456.40
892.00	457.18
893.00	443.14
894.00	462.65
895.00	445.48
896.00	444.70
897.00	410.37
898.00	432.22
899.00	450.16
900.00	482.93
901.00	455.62
902.00	439.24
903.00	500.09
904.00	603.86
905.00	736.49
906.00	791.10
907.00	796.56
908.00	718.54
909.00	968.20
910.00	1004.87
911.00	1118.00
912.00	915.15
913.00	908.91
914.00	848.83
915.00	739.61
916.00	654.57
917.00	599.96
918.00	560.17
919.00	529.74
920.00	479.81
921.00	461.87
922.00	442.36
923.00	422.86
924.00	416.62
925.00	443.92
926.00	467.33
927.00	472.01
928.00	472.79
929.00	468.11
930.00	476.69
931.00	449.38
932.00	444.70
933.00	423.64
934.00	433.00
935.00	431.44
936.00	445.48
937.00	452.50
938.00	461.87
939.00	415.84
940.00	401.79
941.00	410.37
942.00	486.83
943.00	642.09
944.00	1086.79
945.00	1902.08
946.00	2931.91
947.00	3648.12
948.00	3715.21
949.00	3162.06
950.00	2340.54
951.00	1602.49
952.00	1064.16
953.00	735.71
954.00	567.19
955.00	522.72
956.00	496.19
957.00	504.00
958.00	479.81
959.00	465.77
960.00	445.48
961.00	406.47
962.00	415.84
963.00	404.91
964.00	419.74
965.00	432.22
966.00	469.67
967.00	484.49
968.00	475.13
969.00	452.50
970.00	443.14
971.00	462.65
972.00	461.09
973.00	444.70
974.00	434.56
975.00	418.96
976.00	435.34
977.00	440.80
978.00	472.79
979.00	464.21
980.00	461.87
981.00	431.44
982.00	428.32
983.00	401.79
984.00	415.06
985.00	430.66
986.00	440.80
987.00	436.90
988.00	428.32
989.00	436.12
990.00	468.11
991.00	468.89
992.00	461.87
993.00	426.76
994.00	444.70
995.00	434.56
996.00	436.90
997.00	430.66
998.00	421.30
999.00	433.00
1000.00	438.46
1001.00	455.62
1002.00	456.40
1003.00	458.74
1004.00	486.05
1005.00	480.59
1006.00	467.33
1007.00	447.82
1008.00	425.98
1009.00	417.40
1010.00	454.06
1011.00	484.49
1012.00	489.95
1013.00	436.90
1014.00	419.74
1015.00	404.91
1016.00	433.00
1017.00	444.70
1018.00	438.46
1019.00	390.87
1020.00	367.46
1021.00	397.89
1022.00	426.76
1023.00	461.87
1024.00	444.70
1025.00	448.60
1026.00	436.90
1027.00	454.84
1028.00	450.94
1029.00	431.44
1030.00	423.64
1031.00	448.60
1032.00	463.43
1033.00	479.03
1034.00	440.80
1035.00	464.21
1036.00	475.13
1037.00	486.83
1038.00	468.89
1039.00	418.18
1040.00	429.88
1041.00	439.24
1042.00	467.33
1043.00	493.07
1044.00	521.16
1045.00	582.79
1046.00	553.93
1047.00	521.16
1048.00	461.09
1049.00	442.36
1050.00	429.10
1051.00	433.78
1052.00	460.31
1053.00	444.70
1054.00	407.25
1055.00	391.65
1056.00	408.03
1057.00	442.36
1058.00	426.76
1059.00	437.68
1060.00	428.32
1061.00	475.91
1062.00	475.13
1063.00	492.29
1064.00	461.87
1065.00	435.34
1066.00	404.13
1067.00	404.13
1068.00	424.42
1069.00	455.62
1070.00	468.11
1071.00	447.82
1072.00	437.68
1073.00	452.50
1074.00	449.38
1075.00	450.94
1076.00	447.04
1077.00	478.25
1078.00	468.11
1079.00	472.01
1080.00	461.09
1081.00	457.18
1082.00	427.54
1083.00	447.82
1084.00	453.28
1085.00	453.28
1086.00	445.48
1087.00	456.40
1088.00	481.37
1089.00	483.71
1090.00	486.83
1091.00	461.09
1092.00	439.24
1093.00	430.66
1094.00	441.58
1095.00	476.69
1096.00	481.37
1097.00	486.83
1098.00	500.09
1099.00	531.30
1100.00	585.13
1101.00	603.08
1102.00	619.46
1103.00	573.43
1104.00	519.60
1105.00	460.31
1106.00	444.70
1107.00	450.16
1108.00	454.06
1109.00	430.66
1110.00	407.25
1111.00	417.40
1112.00	441.58
1113.00	455.62
1114.00	454.84
1115.00	435.34
1116.00	431.44
1117.00	436.12
1118.00	444.70
1119.00	482.15
1120.00	486.05
1121.00	514.14
1122.00	533.64
1123.00	530.52
1124.00	518.82
1125.00	464.99
1126.00	459.53
1127.00	457.18
1128.00	476.69
1129.00	478.25
1130.00	469.67
1131.00	429.10
1132.00	451.72
1133.00	463.43
1134.00	481.37
1135.00	454.06
1136.00	468.89
1137.00	513.36
1138.00	525.84
1139.00	532.86
1140.00	497.75
1141.00	521.94
1142.00	507.12
1143.00	529.74
1144.00	511.02
1145.00	518.04
1146.00	505.56
1147.00	489.95
1148.00	468.11
1149.00	476.69
1150.00	489.17
1151.00	472.79
1152.00	464.99
1153.00	482.93
1154.00	532.86
1155.00	555.49
1156.00	635.85
1157.00	700.60
1158.00	748.97
1159.00	692.02
1160.00	645.21
1161.00	605.42
1162.00	577.33
1163.00	621.02
1164.00	776.28
1165.00	1055.58
1166.00	1383.26
1167.00	1655.54
1168.00	1731.22
1169.00	1577.52
1170.00	1315.38
1171.00	1053.24
1172.00	866.78
1173.00	720.89
1174.00	635.07
1175.00	597.62
1176.00	570.31
1177.00	570.31
1178.00	571.87
1179.00	585.13
1180.00	578.11
1181.00	599.18
1182.00	631.94
1183.00	660.81
1184.00	672.51
1185.00	664.71
1186.00	652.23
1187.00	640.53
1188.00	627.26
1189.00	690.46
1190.00	760.67
1191.00	885.50
1192.00	929.19
1193.00	923.73
1194.00	877.70
1195.00	836.35
1196.00	816.07
1197.00	802.02
1198.00	851.95
1199.00	990.83
1200.00	1173.39
1201.00	1410.56
1202.00	1490.14
1203.00	1504.18
1204.00	1366.87
1205.00	1274.03
1206.00	1210.84
1207.00	1173.39
1208.00	1169.49
1209.00	1162.47
1210.00	1195.23
1211.00	1245.16
1212.00	1343.47
1213.00	1487.02
1214.00	1695.33
1215.00	1983.99
1216.00	2523.10
1217.00	5746.80
1218.00	21119.43
1219.00	41871.40
1220.00	59850.62
1221.00	65535.00
1222.00	65535.00
1223.00	65535.00
1224.00	65535.00
1225.00	65350.10
1226.00	56207.97
1227.00	40519.35
1228.00	21908.97
1229.00	10771.15
1230.00	5547.85
1231.00	3205.75
1232.00	2247.69
1233.00	1888.81
1234.00	1692.99
1235.00	1668.80
1236.00	2154.07
1237.00	3839.26
1238.00	7159.70
1239.00	11587.99
1240.00	15265.75
1241.00	16332.26
1242.00	14561.25
1243.00	11243.93
1244.00	7678.52
1245.00	4796.54
1246.00	2743.89
1247.00	1699.23
1248.00	1177.29
1249.00	972.88
1250.00	930.75
1251.00	981.46
1252.00	1075.87
1253.00	1170.27
1254.00	1240.48
1255.00	1217.86
1256.00	1161.69
1257.00	1082.89
1258.00	1009.55
1259.00	940.12
1260.00	898.77
1261.00	908.91
1262.00	922.95
1263.00	895.64
1264.00	859.76
1265.00	799.68
1266.00	766.92
1267.00	751.31
1268.00	771.60
1269.00	789.54
1270.00	825.43
1271.00	853.52
1272.00	829.33
1273.00	823.09
1274.00	848.83
1275.00	1239.70
1276.00	2959.22
1277.00	7178.42
1278.00	14593.24
1279.00	22947.39
1280.00	28496.02
1281.00	28716.81
1282.00	24421.15
1283.00	17987.02
1284.00	11666.01
1285.00	6713.44
1286.00	3687.12
1287.00	2133.01
1288.00	1330.98
1289.00	975.22
1290.00	837.91
1291.00	795.00
1292.00	859.76
1293.00	899.55
1294.00	934.65
1295.00	1061.04
1296.00	1678.16
1297.00	2917.87
1298.00	4681.85
1299.00	6161.85
1300.00	6785.99
1301.00	6239.87
1302.00	5037.61
1303.00	3620.81
1304.00	2438.06
1305.00	1602.49
1306.00	1162.47
1307.00	952.60
1308.00	874.58
1309.00	805.14
1310.00	768.48
1311.00	716.20
1312.00	680.32
1313.00	644.43
1314.00	596.84
1315.00	602.30
1316.00	607.76
1317.00	611.66
1318.00	579.67
1319.00	571.87
1320.00	555.49
1321.00	546.91
1322.00	531.30
1323.00	546.12
1324.00	565.63
1325.00	535.98
1326.00	535.98
1327.00	527.40
1328.00	562.51
1329.00	621.02
1330.00	976.78
1331.00	1868.53
1332.00	3458.53
1333.00	5461.25
1334.00	6945.93
1335.00	7383.61
1336.00	6559.74
1337.00	5219.39
1338.00	3713.65
1339.00	2457.56
1340.00	1533.83
1341.00	1015.01
1342.00	781.74
1343.00	695.92
1344.00	681.88
1345.00	681.10
1346.00	655.35
1347.00	625.70
1348.00	607.76
1349.00	631.16
1350.00	631.94
1351.00	634.29
1352.00	644.43
1353.00	696.70
1354.00	727.91
1355.00	753.65
1356.00	795.78
1357.00	876.92
1358.00	1480.00
1359.00	3485.06
1360.00	7794.76
1361.00	14160.24
1362.00	20387.63
1363.00	23722.89
1364.00	22676.67
1365.00	18732.87
1366.00	13432.33
1367.00	8777.01
1368.00	5065.70
1369.00	2987.30
1370.00	1900.51
1371.00	1473.76
1372.00	2102.58
1373.00	5387.91
1374.00	12730.17
1375.00	24344.69
1376.00	35779.77
1377.00	42395.68
1378.00	41028.03
1379.00	34388.71
1380.00	24961.81
1381.00	16171.54
1382.00	9050.07
1383.00	4850.37
1384.00	2661.19
1385.00	1652.42
1386.00	1151.54
1387.00	972.88
1388.00	845.71
1389.00	855.08
1390.00	828.55
1391.00	830.89
1392.00	811.39
1393.00	831.67
1394.00	926.85
1395.00	1082.11
1396.00	1371.55
1397.00	1640.72
1398.00	1835.76
1399.00	1856.04
1400.00	1782.71
1401.00	1696.11
1402.00	2192.30
1403.00	5583.74
1404.00	14750.06
1405.00	30585.34
1406.00	46532.19
1407.00	57129.36
1408.00	58883.98
1409.00	54624.98
1410.00	44715.93
1411.00	31626.88
1412.00	18849.11
1413.00	9997.99
1414.00	5271.67
1415.00	3021.63
1416.00	2448.20
1417.00	3613.79
1418.00	6634.64
1419.00	11149.53
1420.00	15340.65
1421.00	17405.00
1422.00	16315.87
1423.00	13364.46
1424.00	9646.13
1425.00	6388.88
1426.00	3783.87
1427.00	2243.79
1428.00	1444.11
1429.00	1047.78
1430.00	876.14
1431.00	807.48
1432.00	785.64
1433.00	806.70
1434.00	798.12
1435.00	748.19
1436.00	679.54
1437.00	649.89
1438.00	642.87
1439.00	627.26
1440.00	596.06
1441.00	599.96
1442.00	599.96
1443.00	593.72
1444.00	561.73
1445.00	550.81
1446.00	533.64
1447.00	604.64
1448.00	642.87
1449.00	665.49
1450.00	685.00
1451.00	940.90
1452.00	1848.24
1453.00	3636.41
1454.00	6267.17
1455.00	8866.73
1456.00	10242.18
1457.00	9883.30
1458.00	8394.72
1459.00	6355.33
1460.00	4448.58
1461.00	2724.38
1462.00	1661.00
1463.00	1096.93
1464.00	841.03
1465.00	755.21
1466.00	674.07
1467.00	664.71
1468.00	628.82
1469.00	639.75
1470.00	624.14
1471.00	631.94
1472.00	639.75
1473.00	631.16
1474.00	645.21
1475.00	643.65
1476.00	652.23
1477.00	640.53
1478.00	628.04
1479.00	648.33
1480.00	638.97
1481.00	673.29
1482.00	746.63
1483.00	1171.83
1484.00	3049.72
1485.00	7611.42
1486.00	15722.94
1487.00	25490.77
1488.00	33128.72
1489.00	35120.52
1490.00	31636.24
1491.00	24902.52
1492.00	17390.18
1493.00	10683.77
1494.00	5835.74
1495.00	3172.21
1496.00	1845.90
1497.00	1212.40
1498.00	893.30
1499.00	777.06
1500.00	717.76
1501.00	680.32
1502.00	621.80
1503.00	620.24
1504.00	631.16
1505.00	641.31
1506.00	636.63
1507.00	650.67
1508.00	713.08
1509.00	982.24
1510.00	1767.10
1511.00	3311.86
1512.00	5599.34
1513.00	7674.62
1514.00	8776.23
1515.00	8383.02
1516.00	7164.38
1517.00	5430.82
1518.00	3795.57
1519.00	2405.29
1520.00	1571.28
1521.00	1095.37
1522.00	866.00
1523.00	739.61
1524.00	695.92
1525.00	684.22
1526.00	728.69
1527.00	818.41
1528.00	1041.54
1529.00	2085.42
1530.00	4652.99
1531.00	9277.10
1532.00	15661.30
1533.00	21172.49
1534.00	23771.26
1535.00	22114.16
1536.00	18175.82
1537.00	13114.02
1538.00	8526.57
1539.00	4923.71
1540.00	2804.74
1541.00	1708.59
1542.00	1164.81
1543.00	908.13
1544.00	777.06
1545.00	710.74
1546.00	708.40
1547.00	731.03
1548.00	722.45
1549.00	718.54
1550.00	716.20
1551.00	707.62
1552.00	706.06
1553.00	708.40
1554.00	737.27
1555.00	737.27
1556.00	742.73
1557.00	775.50
1558.00	831.67
1559.00	881.60
1560.00	967.42
1561.00	1705.47
1562.00	4614.76
1563.00	10999.74
1564.00	21628.89
1565.00	33444.70
1566.00	41975.95
1567.00	43421.62
1568.00	38856.01
1569.00	30672.72
1570.00	21634.35
1571.00	13394.11
1572.00	7581.00
1573.00	4413.47
1574.00	3909.47
1575.00	7699.58
1576.00	17405.78
1577.00	32864.24
1578.00	47611.96
1579.00	56949.13
1580.00	58242.67
1581.00	54174.04
1582.00	45225.39
1583.00	32936.80
1584.00	20361.10
1585.00	11063.71
1586.00	5820.13
1587.00	3244.76
1588.00	1968.39
1589.00	1366.87
1590.00	1057.92
1591.00	892.52
1592.00	809.83
1593.00	764.57
1594.00	733.37
1595.00	714.64
1596.00	693.58
1597.00	680.32
1598.00	614.00
1599.00	579.67
1600.00	571.09
1601.00	603.08
1602.00	624.92
1603.00	598.40
1604.00	596.06
1605.00	560.95
1606.00	578.89
1607.00	569.53
1608.00	565.63
1609.00	564.85
1610.00	564.85
1611.00	574.21
1612.00	574.99
1613.00	579.67
1614.00	585.13
1615.00	592.16
1616.00	594.50
1617.00	590.60
1618.00	584.35
1619.00	543.78
1620.00	557.05
1621.00	558.61
1622.00	604.64
1623.00	580.45
1624.00	619.46
1625.00	617.90
1626.00	621.02
1627.00	571.09
1628.00	561.73
1629.00	571.87
1630.00	581.23
1631.00	557.05
1632.00	557.83
1633.00	539.88
1634.00	574.99
1635.00	578.11
1636.00	614.00
1637.00	619.46
1638.00	617.90
1639.00	604.64
1640.00	608.54
1641.00	631.94
1642.00	677.98
1643.00	710.74
1644.00	786.42
1645.00	1323.18
1646.00	3454.63
1647.00	8214.50
1648.00	16172.32
1649.00	25458.79
1650.00	32599.76
1651.00	34682.06
1652.00	31827.38
1653.00	25984.63
1654.00	19027.00
1655.00	12299.52
1656.00	7081.68
1657.00	3886.85
1658.00	2215.71
1659.00	1366.87
1660.00	958.84
1661.00	812.95
1662.00	780.18
1663.00	908.91
1664.00	1515.11
1665.00	2927.23
1666.00	5324.72
1667.00	8432.17
1668.00	11151.09
1669.00	12318.24
1670.00	11596.57
1671.00	9710.10
1672.00	7397.65
1673.00	5089.88
1674.00	3167.52
1675.00	1883.35
1676.00	1191.33
1677.00	836.35
1678.00	667.05
1679.00	603.08
1680.00	577.33
1681.00	521.94
1682.00	479.81
1683.00	441.58
1684.00	464.99
1685.00	500.09
1686.00	500.87
1687.00	493.07
1688.00	475.13
1689.00	488.39
1690.00	503.22
1691.00	527.40
1692.00	524.28
1693.00	527.40
1694.00	512.58
1695.00	509.46
1696.00	503.22
1697.00	521.94
1698.00	515.70
1699.00	560.95
1700.00	546.91
1701.00	550.03
1702.00	514.92
1703.00	540.66
1704.00	569.53
1705.00	577.33
1706.00	582.01
1707.00	566.41
1708.00	592.16
1709.00	862.10
1710.00	1861.51
1711.00	4090.48
1712.00	7616.88
1713.00	12015.53
1714.00	15629.32
1715.00	17199.04
1716.00	16278.43
1717.00	13646.10
1718.00	10243.74
1719.00	6839.05
1720.00	4163.03
1721.00	2442.74
1722.00	1503.40
1723.00	1022.03
1724.00	776.28
1725.00	662.37
1726.00	585.13
1727.00	574.21
1728.00	546.91
1729.00	536.76
1730.00	535.20
1731.00	505.56
1732.00	507.90
1733.00	505.56
1734.00	543.00
1735.00	549.25
1736.00	532.86
1737.00	516.48
1738.00	501.65
1739.00	511.80
1740.00	503.22
1741.00	511.02
1742.00	509.46
1743.00	498.53
1744.00	461.87
1745.00	459.53
1746.00	478.25
1747.00	528.96
1748.00	519.60
1749.00	546.91
1750.00	548.47
1751.00	597.62
1752.00	593.72
1753.00	590.60
1754.00	569.53
1755.00	571.87
1756.00	580.45
1757.00	567.97
1758.00	559.39
1759.00	554.71
1760.00	548.47
1761.00	583.57
1762.00	641.31
1763.00	735.71
1764.00	867.56
1765.00	1509.65
1766.00	3750.32
1767.00	8195.00
1768.00	15279.80
1769.00	22961.44
1770.00	28872.85
1771.00	30320.08
1772.00	27959.26
1773.00	22823.34
1774.00	16883.84
1775.00	11065.27
1776.00	6646.34
1777.00	3817.41
1778.00	2253.16
1779.00	1452.69
1780.00	1082.11
1781.00	866.00
1782.00	722.45
1783.00	667.05
1784.00	644.43
1785.00	649.89
1786.00	608.54
1787.00	594.50
1788.00	596.06
1789.00	607.76
1790.00	620.24
1791.00	635.85
1792.00	802.02
1793.00	1599.37
1794.00	3529.53
1795.00	6852.31
1796.00	11406.99
1797.00	15793.15
1798.00	18427.04
1799.00	18234.33
1800.00	15920.32
1801.00	12470.37
1802.00	8917.44
1803.00	5709.35
1804.00	3416.40
1805.00	1976.97
1806.00	1253.75
1807.00	920.61
1808.00	766.92
1809.00	657.69
1810.00	605.42
1811.00	570.31
1812.00	574.99
1813.00	554.71
1814.00	545.34
1815.00	527.40
1816.00	525.06
1817.00	496.97
1818.00	493.85
1819.00	486.83
1820.00	526.62
1821.00	561.73
1822.00	637.41
1823.00	672.51
1824.00	692.02
1825.00	681.10
1826.00	642.87
1827.00	601.52
1828.00	536.76
1829.00	496.19
1830.00	489.95
1831.00	479.03
1832.00	477.47
1833.00	470.45
1834.00	479.81
1835.00	489.95
1836.00	472.79
1837.00	469.67
1838.00	468.11
1839.00	479.81
1840.00	450.94
1841.00	457.18
1842.00	456.40
1843.00	473.57
1844.00	446.26
1845.00	428.32
1846.00	417.40
1847.00	422.08
1848.00	429.10
1849.00	449.38
1850.00	444.70
1851.00	449.38
1852.00	456.40
1853.00	460.31
1854.00	430.66
1855.00	415.84
1856.00	445.48
1857.00	464.21
1858.00	460.31
1859.00	433.00
1860.00	439.24
1861.00	444.70
1862.00	438.46
1863.00	440.80
1864.00	443.14
1865.00	475.13
1866.00	460.31
1867.00	472.79
1868.00	458.74
1869.00	466.55
1870.00	445.48
1871.00	432.22
1872.00	443.14
1873.00	445.48
1874.00	450.94
1875.00	450.16
1876.00	442.36
1877.00	468.11
1878.00	475.13
1879.00	471.23
1880.00	450.94
1881.00	436.12
1882.00	443.14
1883.00	452.50
1884.00	477.47
1885.00	486.83
1886.00	482.93
1887.00	454.84
1888.00	462.65
1889.00	467.33
1890.00	477.47
1891.00	492.29
1892.00	469.67
1893.00	432.22
1894.00	384.63
1895.00	398.67
1896.00	421.30
1897.00	433.00
1898.00	428.32
1899.00	433.78
1900.00	434.56
1901.00	433.78
1902.00	460.31
1903.00	485.27
1904.00	481.37
1905.00	457.18
1906.00	464.21
1907.00	524.28
1908.00	579.67
1909.00	604.64
1910.00	592.16
1911.00	578.11
1912.00	560.95
1913.00	581.23
1914.00	543.78
1915.00	525.84
1916.00	472.79
1917.00	514.92
1918.00	519.60
1919.00	541.44
1920.00	507.90
1921.00	500.09
1922.00	475.13
1923.00	476.69
1924.00	464.21
1925.00	469.67
1926.00	451.72
1927.00	493.85
1928.00	483.71
1929.00	494.63
1930.00	481.37
1931.00	466.55
1932.00	455.62
1933.00	457.18
1934.00	471.23
1935.00	506.34
1936.00	493.07
1937.00	499.31
1938.00	464.21
1939.00	471.23
1940.00	492.29
1941.00	504.00
1942.00	504.78
1943.00	509.46
1944.00	501.65
1945.00	533.64
1946.00	588.25
1947.00	971.32
1948.00	2072.15
1949.00	4016.36
1950.00	7062.96
1951.00	10538.65
1952.00	13430.77
1953.00	14493.38
1954.00	13646.88
1955.00	11742.47
1956.00	9291.15
1957.00	6911.60
1958.00	4769.23
1959.00	3236.18
1960.00	2135.35
1961.00	1424.61
1962.00	1007.21
1963.00	773.16
1964.00	656.13
1965.00	615.56
1966.00	574.21
1967.00	543.78
1968.00	501.65
1969.00	484.49
1970.00	481.37
1971.00	474.35
1972.00	475.91
1973.00	511.02
1974.00	551.59
1975.00	633.50
1976.00	742.73
1977.00	939.34
1978.00	1139.84
1979.00	1252.97
1980.00	1264.67
1981.00	1205.38
1982.00	1111.75
1983.00	978.34
1984.00	852.74
1985.00	735.71
1986.00	654.57
1987.00	589.03
1988.00	556.27
1989.00	525.06
1990.00	505.56
1991.00	486.83
1992.00	488.39
1993.00	476.69
1994.00	479.81
1995.00	485.27
1996.00	484.49
1997.00	479.03
1998.00	488.39
1999.00	486.05
2000.00	492.29
2001.00	496.97
2002.00	524.28
2003.00	528.96
2004.00	513.36
2005.00	492.29
2006.00	486.83
2007.00	498.53
2008.00	479.81
2009.00	507.90
2010.00	496.19
2011.00	509.46
2012.00	507.90
2013.00	511.02
2014.00	536.76
2015.00	535.98
2016.00	559.39
2017.00	576.55
2018.00	576.55
2019.00	641.31
2020.00	714.64
2021.00	885.50
2022.00	1079.77
2023.00	1319.28
2024.00	1874.77
2025.00	3437.47
2026.00	6746.98
2027.00	11895.38
2028.00	18654.07
2029.00	25011.74
2030.00	29496.99
2031.00	30117.23
2032.00	28088.77
2033.00	23804.03
2034.00	18881.88
2035.00	13793.56
2036.00	9516.62
2037.00	6278.10
2038.00	3975.79
2039.00	2519.98
2040.00	1650.86
2041.00	1153.10
2042.00	858.98
2043.00	708.40
2044.00	673.29
2045.00	667.83
2046.00	664.71
2047.00	617.90
>>>>>End Processed Spectral Data<<<<<
