SpectraSuite Data File
++++++++++++++++++++++++++++++++++++
Date: Thu Nov 16 14:27:26 EST 2017
User: cheriyan
Dark Spectrum Present: No
Reference Spectrum Present: No
Number of Sampled Component Spectra: 1
Spectrometers: USB2+H05261
Integration Time (usec): 100000 (USB2+H05261)
Spectra Averaged: 1 (USB2+H05261)
Boxcar Smoothing: 1 (USB2+H05261)
Correct for Electrical Dark: No (USB2+H05261)
Strobe/Lamp Enabled: No (USB2+H05261)
Correct for Detector Non-linearity: No (USB2+H05261)
Correct for Stray Light: No (USB2+H05261)
Number of Pixels in Processed Spectrum: 2048
>>>>>Begin Processed Spectral Data<<<<<
0.00	339.38
1.00	339.38
2.00	308.17
3.00	287.11
4.00	266.04
5.00	254.34
6.00	242.64
7.00	241.86
8.00	223.91
9.00	209.09
10.00	181.78
11.00	206.75
12.00	216.89
13.00	235.61
14.00	227.03
15.00	234.83
16.00	222.35
17.00	244.98
18.00	234.83
19.00	234.83
20.00	238.73
21.00	252.00
22.00	261.36
23.00	276.18
24.00	289.45
25.00	298.81
26.00	295.69
27.00	308.95
28.00	343.28
29.00	348.74
30.00	367.46
31.00	350.30
32.00	349.52
33.00	342.50
34.00	349.52
35.00	362.00
36.00	354.98
37.00	366.68
38.00	372.93
39.00	394.77
40.00	395.55
41.00	391.65
42.00	384.63
43.00	374.49
44.00	380.73
45.00	390.09
46.00	390.09
47.00	390.87
48.00	375.27
49.00	385.41
50.00	397.89
51.00	422.08
52.00	454.06
53.00	422.08
54.00	387.75
55.00	358.88
56.00	386.97
57.00	419.74
58.00	437.68
59.00	419.74
60.00	406.47
61.00	387.75
62.00	373.71
63.00	395.55
64.00	386.97
65.00	408.03
66.00	388.53
67.00	422.08
68.00	394.77
69.00	390.87
70.00	368.24
71.00	398.67
72.00	397.89
73.00	409.59
74.00	400.23
75.00	400.23
76.00	395.55
77.00	383.07
78.00	379.95
79.00	372.15
80.00	397.89
81.00	405.69
82.00	415.06
83.00	422.08
84.00	410.37
85.00	389.31
86.00	396.33
87.00	411.15
88.00	450.94
89.00	429.10
90.00	409.59
91.00	384.63
92.00	382.29
93.00	395.55
94.00	383.85
95.00	365.12
96.00	363.56
97.00	365.90
98.00	375.27
99.00	371.36
100.00	359.66
101.00	356.54
102.00	348.74
103.00	349.52
104.00	360.44
105.00	352.64
106.00	359.66
107.00	356.54
108.00	356.54
109.00	396.33
110.00	399.45
111.00	402.57
112.00	380.73
113.00	376.83
114.00	376.05
115.00	383.07
116.00	383.85
117.00	382.29
118.00	362.78
119.00	362.00
120.00	354.98
121.00	371.36
122.00	383.85
123.00	422.08
124.00	407.25
125.00	406.47
126.00	379.17
127.00	389.31
128.00	369.02
129.00	380.73
130.00	351.86
131.00	358.88
132.00	358.10
133.00	367.46
134.00	393.21
135.00	379.17
136.00	374.49
137.00	345.62
138.00	362.00
139.00	393.21
140.00	397.89
141.00	397.11
142.00	385.41
143.00	390.09
144.00	388.53
145.00	395.55
146.00	384.63
147.00	408.03
148.00	401.79
149.00	400.23
150.00	387.75
151.00	404.91
152.00	437.68
153.00	429.88
154.00	408.03
155.00	392.43
156.00	389.31
157.00	386.19
158.00	373.71
159.00	372.15
160.00	361.22
161.00	369.80
162.00	369.80
163.00	378.39
164.00	393.21
165.00	379.95
166.00	390.09
167.00	372.15
168.00	390.87
169.00	406.47
170.00	420.52
171.00	423.64
172.00	417.40
173.00	416.62
174.00	407.25
175.00	404.91
176.00	409.59
177.00	407.25
178.00	392.43
179.00	362.00
180.00	363.56
181.00	373.71
182.00	394.77
183.00	384.63
184.00	386.97
185.00	406.47
186.00	401.79
187.00	418.96
188.00	407.25
189.00	418.96
190.00	380.73
191.00	366.68
192.00	393.99
193.00	403.35
194.00	390.09
195.00	363.56
196.00	384.63
197.00	403.35
198.00	423.64
199.00	404.13
200.00	390.87
201.00	387.75
202.00	386.19
203.00	408.03
204.00	397.11
205.00	409.59
206.00	414.27
207.00	415.06
208.00	403.35
209.00	386.97
210.00	388.53
211.00	375.27
212.00	362.78
213.00	361.22
214.00	384.63
215.00	412.71
216.00	422.86
217.00	412.71
218.00	390.87
219.00	376.05
220.00	372.15
221.00	383.07
222.00	380.73
223.00	368.24
224.00	367.46
225.00	364.34
226.00	393.21
227.00	397.89
228.00	408.03
229.00	390.87
230.00	369.02
231.00	362.78
232.00	375.27
233.00	386.19
234.00	404.91
235.00	414.27
236.00	427.54
237.00	412.71
238.00	400.23
239.00	408.03
240.00	406.47
241.00	408.81
242.00	409.59
243.00	397.89
244.00	394.77
245.00	373.71
246.00	379.95
247.00	391.65
248.00	399.45
249.00	411.15
250.00	401.01
251.00	390.87
252.00	358.10
253.00	351.08
254.00	362.00
255.00	379.95
256.00	375.27
257.00	383.07
258.00	408.03
259.00	404.13
260.00	404.91
261.00	390.87
262.00	417.40
263.00	399.45
264.00	414.27
265.00	418.18
266.00	422.86
267.00	418.96
268.00	391.65
269.00	369.02
270.00	342.50
271.00	337.04
272.00	351.86
273.00	370.58
274.00	404.91
275.00	415.84
276.00	404.91
277.00	402.57
278.00	413.49
279.00	438.46
280.00	422.08
281.00	421.30
282.00	414.27
283.00	425.98
284.00	401.01
285.00	398.67
286.00	397.89
287.00	408.81
288.00	393.99
289.00	407.25
290.00	394.77
291.00	399.45
292.00	370.58
293.00	379.95
294.00	358.10
295.00	351.08
296.00	341.72
297.00	353.42
298.00	342.50
299.00	351.08
300.00	379.17
301.00	405.69
302.00	378.39
303.00	359.66
304.00	332.36
305.00	358.10
306.00	340.16
307.00	353.42
308.00	379.95
309.00	414.27
310.00	413.49
311.00	397.11
312.00	365.90
313.00	369.80
314.00	365.12
315.00	378.39
316.00	419.74
317.00	424.42
318.00	425.98
319.00	395.55
320.00	384.63
321.00	376.83
322.00	368.24
323.00	355.76
324.00	343.28
325.00	344.06
326.00	363.56
327.00	386.97
328.00	392.43
329.00	381.51
330.00	369.80
331.00	386.97
332.00	404.13
333.00	417.40
334.00	397.11
335.00	392.43
336.00	403.35
337.00	396.33
338.00	379.17
339.00	361.22
340.00	377.61
341.00	390.87
342.00	411.15
343.00	412.71
344.00	444.70
345.00	414.27
346.00	418.18
347.00	373.71
348.00	390.09
349.00	381.51
350.00	412.71
351.00	425.20
352.00	417.40
353.00	402.57
354.00	393.99
355.00	408.81
356.00	383.85
357.00	381.51
358.00	365.12
359.00	385.41
360.00	390.09
361.00	393.21
362.00	389.31
363.00	385.41
364.00	393.99
365.00	401.01
366.00	404.13
367.00	392.43
368.00	418.18
369.00	421.30
370.00	441.58
371.00	422.08
372.00	425.98
373.00	413.49
374.00	402.57
375.00	386.19
376.00	380.73
377.00	384.63
378.00	390.09
379.00	390.09
380.00	374.49
381.00	348.74
382.00	352.64
383.00	381.51
384.00	411.93
385.00	427.54
386.00	402.57
387.00	398.67
388.00	383.85
389.00	394.77
390.00	417.40
391.00	378.39
392.00	356.54
393.00	339.38
394.00	354.98
395.00	395.55
396.00	372.15
397.00	383.07
398.00	358.10
399.00	382.29
400.00	372.15
401.00	369.02
402.00	351.08
403.00	395.55
404.00	408.03
405.00	428.32
406.00	390.09
407.00	362.00
408.00	354.20
409.00	369.02
410.00	384.63
411.00	373.71
412.00	365.90
413.00	370.58
414.00	356.54
415.00	362.00
416.00	365.90
417.00	379.95
418.00	396.33
419.00	417.40
420.00	410.37
421.00	423.64
422.00	404.13
423.00	434.56
424.00	414.27
425.00	404.13
426.00	377.61
427.00	368.24
428.00	380.73
429.00	394.77
430.00	415.06
431.00	429.88
432.00	426.76
433.00	427.54
434.00	424.42
435.00	427.54
436.00	401.79
437.00	392.43
438.00	405.69
439.00	419.74
440.00	411.15
441.00	433.00
442.00	441.58
443.00	469.67
444.00	414.27
445.00	406.47
446.00	384.63
447.00	397.89
448.00	400.23
449.00	389.31
450.00	379.17
451.00	379.17
452.00	405.69
453.00	427.54
454.00	402.57
455.00	383.07
456.00	389.31
457.00	420.52
458.00	437.68
459.00	432.22
460.00	407.25
461.00	372.93
462.00	358.10
463.00	370.58
464.00	395.55
465.00	422.08
466.00	419.74
467.00	416.62
468.00	414.27
469.00	400.23
470.00	397.11
471.00	378.39
472.00	404.13
473.00	418.96
474.00	422.86
475.00	424.42
476.00	418.18
477.00	429.88
478.00	424.42
479.00	426.76
480.00	412.71
481.00	414.27
482.00	418.18
483.00	405.69
484.00	425.98
485.00	410.37
486.00	450.94
487.00	422.08
488.00	422.86
489.00	397.89
490.00	393.21
491.00	403.35
492.00	403.35
493.00	414.27
494.00	423.64
495.00	407.25
496.00	362.78
497.00	349.52
498.00	354.98
499.00	390.87
500.00	397.11
501.00	427.54
502.00	420.52
503.00	422.08
504.00	405.69
505.00	417.40
506.00	427.54
507.00	425.20
508.00	424.42
509.00	384.63
510.00	375.27
511.00	378.39
512.00	390.87
513.00	389.31
514.00	378.39
515.00	395.55
516.00	421.30
517.00	447.82
518.00	454.06
519.00	411.93
520.00	418.18
521.00	401.01
522.00	435.34
523.00	396.33
524.00	404.91
525.00	403.35
526.00	407.25
527.00	402.57
528.00	389.31
529.00	398.67
530.00	412.71
531.00	418.96
532.00	418.96
533.00	425.20
534.00	429.10
535.00	440.80
536.00	438.46
537.00	461.87
538.00	429.10
539.00	435.34
540.00	433.78
541.00	452.50
542.00	439.24
543.00	418.96
544.00	412.71
545.00	383.85
546.00	383.85
547.00	390.87
548.00	389.31
549.00	386.19
550.00	379.17
551.00	374.49
552.00	351.08
553.00	335.48
554.00	333.14
555.00	357.32
556.00	388.53
557.00	407.25
558.00	398.67
559.00	409.59
560.00	392.43
561.00	400.23
562.00	370.58
563.00	375.27
564.00	372.93
565.00	379.95
566.00	398.67
567.00	407.25
568.00	406.47
569.00	413.49
570.00	415.06
571.00	442.36
572.00	436.12
573.00	411.15
574.00	397.89
575.00	386.97
576.00	401.01
577.00	390.87
578.00	422.08
579.00	420.52
580.00	415.06
581.00	364.34
582.00	395.55
583.00	401.79
584.00	437.68
585.00	428.32
586.00	430.66
587.00	428.32
588.00	403.35
589.00	401.01
590.00	373.71
591.00	377.61
592.00	397.89
593.00	420.52
594.00	431.44
595.00	410.37
596.00	390.09
597.00	352.64
598.00	354.98
599.00	362.78
600.00	379.95
601.00	403.35
602.00	388.53
603.00	399.45
604.00	350.30
605.00	357.32
606.00	381.51
607.00	407.25
608.00	422.08
609.00	377.61
610.00	369.80
611.00	343.28
612.00	355.76
613.00	342.50
614.00	377.61
615.00	371.36
616.00	393.21
617.00	382.29
618.00	407.25
619.00	414.27
620.00	427.54
621.00	410.37
622.00	382.29
623.00	382.29
624.00	380.73
625.00	401.01
626.00	408.03
627.00	395.55
628.00	393.99
629.00	411.15
630.00	404.13
631.00	414.27
632.00	380.73
633.00	448.60
634.00	476.69
635.00	514.14
636.00	545.34
637.00	577.33
638.00	596.06
639.00	575.77
640.00	558.61
641.00	536.76
642.00	501.65
643.00	457.96
644.00	439.24
645.00	414.27
646.00	398.67
647.00	387.75
648.00	397.89
649.00	404.13
650.00	401.01
651.00	401.79
652.00	409.59
653.00	399.45
654.00	463.43
655.00	469.67
656.00	482.93
657.00	419.74
658.00	408.81
659.00	421.30
660.00	422.08
661.00	407.25
662.00	386.19
663.00	379.17
664.00	379.95
665.00	397.11
666.00	397.11
667.00	409.59
668.00	387.75
669.00	410.37
670.00	414.27
671.00	439.24
672.00	417.40
673.00	409.59
674.00	403.35
675.00	422.08
676.00	449.38
677.00	437.68
678.00	430.66
679.00	429.88
680.00	442.36
681.00	418.18
682.00	387.75
683.00	380.73
684.00	406.47
685.00	417.40
686.00	407.25
687.00	393.21
688.00	371.36
689.00	384.63
690.00	376.05
691.00	383.85
692.00	376.83
693.00	369.02
694.00	347.18
695.00	359.66
696.00	382.29
697.00	402.57
698.00	375.27
699.00	376.05
700.00	383.85
701.00	399.45
702.00	405.69
703.00	417.40
704.00	431.44
705.00	414.27
706.00	415.06
707.00	404.13
708.00	396.33
709.00	342.50
710.00	348.74
711.00	365.12
712.00	399.45
713.00	392.43
714.00	396.33
715.00	415.84
716.00	430.66
717.00	416.62
718.00	438.46
719.00	412.71
720.00	424.42
721.00	401.79
722.00	426.76
723.00	446.26
724.00	452.50
725.00	433.00
726.00	418.96
727.00	407.25
728.00	415.06
729.00	410.37
730.00	418.96
731.00	414.27
732.00	403.35
733.00	393.99
734.00	392.43
735.00	376.05
736.00	386.19
737.00	381.51
738.00	411.93
739.00	383.85
740.00	388.53
741.00	395.55
742.00	426.76
743.00	447.82
744.00	432.22
745.00	423.64
746.00	390.09
747.00	399.45
748.00	390.87
749.00	396.33
750.00	394.77
751.00	377.61
752.00	399.45
753.00	386.19
754.00	408.03
755.00	369.80
756.00	397.11
757.00	418.18
758.00	448.60
759.00	424.42
760.00	405.69
761.00	372.93
762.00	387.75
763.00	376.83
764.00	415.84
765.00	411.15
766.00	425.20
767.00	411.93
768.00	405.69
769.00	390.87
770.00	409.59
771.00	400.23
772.00	419.74
773.00	395.55
774.00	399.45
775.00	383.85
776.00	367.46
777.00	373.71
778.00	351.08
779.00	401.01
780.00	385.41
781.00	399.45
782.00	373.71
783.00	443.92
784.00	459.53
785.00	448.60
786.00	390.87
787.00	389.31
788.00	371.36
789.00	382.29
790.00	390.09
791.00	420.52
792.00	394.77
793.00	372.93
794.00	365.90
795.00	392.43
796.00	389.31
797.00	396.33
798.00	404.91
799.00	429.10
800.00	403.35
801.00	362.78
802.00	352.64
803.00	376.05
804.00	398.67
805.00	390.87
806.00	390.09
807.00	387.75
808.00	401.01
809.00	418.18
810.00	428.32
811.00	436.12
812.00	424.42
813.00	418.18
814.00	400.23
815.00	374.49
816.00	380.73
817.00	394.77
818.00	410.37
819.00	389.31
820.00	379.95
821.00	402.57
822.00	428.32
823.00	415.06
824.00	399.45
825.00	370.58
826.00	387.75
827.00	395.55
828.00	411.93
829.00	376.83
830.00	381.51
831.00	379.17
832.00	395.55
833.00	412.71
834.00	426.76
835.00	436.90
836.00	407.25
837.00	396.33
838.00	401.01
839.00	379.17
840.00	390.87
841.00	400.23
842.00	410.37
843.00	392.43
844.00	369.02
845.00	371.36
846.00	376.83
847.00	401.79
848.00	395.55
849.00	413.49
850.00	403.35
851.00	401.01
852.00	379.95
853.00	401.79
854.00	391.65
855.00	394.77
856.00	361.22
857.00	399.45
858.00	385.41
859.00	399.45
860.00	403.35
861.00	434.56
862.00	447.04
863.00	433.78
864.00	408.81
865.00	403.35
866.00	408.81
867.00	407.25
868.00	378.39
869.00	376.83
870.00	366.68
871.00	376.83
872.00	370.58
873.00	401.79
874.00	389.31
875.00	381.51
876.00	372.93
877.00	411.15
878.00	429.10
879.00	422.86
880.00	401.79
881.00	406.47
882.00	423.64
883.00	435.34
884.00	427.54
885.00	403.35
886.00	398.67
887.00	366.68
888.00	362.78
889.00	365.12
890.00	390.09
891.00	398.67
892.00	380.73
893.00	371.36
894.00	362.00
895.00	360.44
896.00	354.20
897.00	379.95
898.00	409.59
899.00	440.02
900.00	453.28
901.00	449.38
902.00	443.14
903.00	413.49
904.00	410.37
905.00	412.71
906.00	406.47
907.00	401.01
908.00	388.53
909.00	713.86
910.00	722.45
911.00	723.23
912.00	414.27
913.00	406.47
914.00	393.21
915.00	384.63
916.00	389.31
917.00	405.69
918.00	410.37
919.00	417.40
920.00	421.30
921.00	436.90
922.00	433.78
923.00	444.70
924.00	444.70
925.00	419.74
926.00	413.49
927.00	385.41
928.00	411.93
929.00	390.09
930.00	394.77
931.00	394.77
932.00	381.51
933.00	371.36
934.00	358.10
935.00	376.83
936.00	374.49
937.00	371.36
938.00	396.33
939.00	408.81
940.00	431.44
941.00	432.22
942.00	452.50
943.00	446.26
944.00	405.69
945.00	418.18
946.00	416.62
947.00	437.68
948.00	411.93
949.00	404.13
950.00	408.03
951.00	405.69
952.00	394.77
953.00	387.75
954.00	374.49
955.00	410.37
956.00	415.84
957.00	457.18
958.00	414.27
959.00	416.62
960.00	403.35
961.00	438.46
962.00	433.78
963.00	418.18
964.00	417.40
965.00	418.18
966.00	431.44
967.00	408.03
968.00	417.40
969.00	397.11
970.00	410.37
971.00	399.45
972.00	425.98
973.00	405.69
974.00	416.62
975.00	383.85
976.00	407.25
977.00	393.99
978.00	412.71
979.00	411.93
980.00	420.52
981.00	421.30
982.00	412.71
983.00	393.99
984.00	383.85
985.00	374.49
986.00	401.79
987.00	401.79
988.00	402.57
989.00	375.27
990.00	391.65
991.00	410.37
992.00	406.47
993.00	394.77
994.00	385.41
995.00	404.91
996.00	408.81
997.00	379.17
998.00	384.63
999.00	388.53
1000.00	393.99
1001.00	378.39
1002.00	350.30
1003.00	382.29
1004.00	411.93
1005.00	436.12
1006.00	430.66
1007.00	412.71
1008.00	423.64
1009.00	415.06
1010.00	416.62
1011.00	384.63
1012.00	388.53
1013.00	408.03
1014.00	440.80
1015.00	440.02
1016.00	415.06
1017.00	429.88
1018.00	417.40
1019.00	425.20
1020.00	386.19
1021.00	383.85
1022.00	371.36
1023.00	378.39
1024.00	382.29
1025.00	393.21
1026.00	406.47
1027.00	414.27
1028.00	398.67
1029.00	393.21
1030.00	407.25
1031.00	421.30
1032.00	428.32
1033.00	412.71
1034.00	418.96
1035.00	422.86
1036.00	420.52
1037.00	406.47
1038.00	401.79
1039.00	399.45
1040.00	390.09
1041.00	393.21
1042.00	393.99
1043.00	403.35
1044.00	386.19
1045.00	431.44
1046.00	435.34
1047.00	443.92
1048.00	405.69
1049.00	391.65
1050.00	386.19
1051.00	379.17
1052.00	375.27
1053.00	386.97
1054.00	393.99
1055.00	396.33
1056.00	390.87
1057.00	381.51
1058.00	383.85
1059.00	382.29
1060.00	396.33
1061.00	412.71
1062.00	388.53
1063.00	376.05
1064.00	345.62
1065.00	348.74
1066.00	349.52
1067.00	388.53
1068.00	393.21
1069.00	391.65
1070.00	354.20
1071.00	368.24
1072.00	384.63
1073.00	403.35
1074.00	415.84
1075.00	417.40
1076.00	422.86
1077.00	409.59
1078.00	385.41
1079.00	397.11
1080.00	405.69
1081.00	420.52
1082.00	421.30
1083.00	418.18
1084.00	397.11
1085.00	396.33
1086.00	385.41
1087.00	399.45
1088.00	408.03
1089.00	419.74
1090.00	403.35
1091.00	372.15
1092.00	353.42
1093.00	349.52
1094.00	365.90
1095.00	355.76
1096.00	350.30
1097.00	316.75
1098.00	339.38
1099.00	376.83
1100.00	407.25
1101.00	411.93
1102.00	409.59
1103.00	400.23
1104.00	401.79
1105.00	386.97
1106.00	392.43
1107.00	386.97
1108.00	404.91
1109.00	393.99
1110.00	404.91
1111.00	395.55
1112.00	391.65
1113.00	395.55
1114.00	397.11
1115.00	422.08
1116.00	414.27
1117.00	408.81
1118.00	396.33
1119.00	386.19
1120.00	404.13
1121.00	411.93
1122.00	421.30
1123.00	408.81
1124.00	398.67
1125.00	396.33
1126.00	404.13
1127.00	401.01
1128.00	410.37
1129.00	378.39
1130.00	368.24
1131.00	349.52
1132.00	376.83
1133.00	383.85
1134.00	392.43
1135.00	379.17
1136.00	405.69
1137.00	408.81
1138.00	418.18
1139.00	406.47
1140.00	376.05
1141.00	368.24
1142.00	386.97
1143.00	431.44
1144.00	443.92
1145.00	413.49
1146.00	410.37
1147.00	415.06
1148.00	433.00
1149.00	427.54
1150.00	469.67
1151.00	484.49
1152.00	469.67
1153.00	422.86
1154.00	413.49
1155.00	411.93
1156.00	402.57
1157.00	391.65
1158.00	396.33
1159.00	376.05
1160.00	363.56
1161.00	362.00
1162.00	407.25
1163.00	451.72
1164.00	464.99
1165.00	464.99
1166.00	447.82
1167.00	438.46
1168.00	422.08
1169.00	414.27
1170.00	413.49
1171.00	418.18
1172.00	411.93
1173.00	424.42
1174.00	408.03
1175.00	389.31
1176.00	375.27
1177.00	376.83
1178.00	403.35
1179.00	396.33
1180.00	402.57
1181.00	401.79
1182.00	437.68
1183.00	441.58
1184.00	446.26
1185.00	417.40
1186.00	409.59
1187.00	386.19
1188.00	376.05
1189.00	379.17
1190.00	409.59
1191.00	425.98
1192.00	422.08
1193.00	404.91
1194.00	392.43
1195.00	416.62
1196.00	444.70
1197.00	450.16
1198.00	427.54
1199.00	426.76
1200.00	442.36
1201.00	465.77
1202.00	437.68
1203.00	429.10
1204.00	450.16
1205.00	451.72
1206.00	425.98
1207.00	396.33
1208.00	391.65
1209.00	420.52
1210.00	422.08
1211.00	415.84
1212.00	401.01
1213.00	403.35
1214.00	423.64
1215.00	425.98
1216.00	407.25
1217.00	390.87
1218.00	408.03
1219.00	404.13
1220.00	398.67
1221.00	378.39
1222.00	395.55
1223.00	409.59
1224.00	414.27
1225.00	390.87
1226.00	394.77
1227.00	379.95
1228.00	396.33
1229.00	387.75
1230.00	412.71
1231.00	443.14
1232.00	453.28
1233.00	453.28
1234.00	438.46
1235.00	425.98
1236.00	422.86
1237.00	417.40
1238.00	438.46
1239.00	431.44
1240.00	425.20
1241.00	416.62
1242.00	413.49
1243.00	430.66
1244.00	423.64
1245.00	440.02
1246.00	436.12
1247.00	413.49
1248.00	418.18
1249.00	404.13
1250.00	457.18
1251.00	447.82
1252.00	417.40
1253.00	405.69
1254.00	404.13
1255.00	432.22
1256.00	405.69
1257.00	403.35
1258.00	398.67
1259.00	375.27
1260.00	356.54
1261.00	362.00
1262.00	403.35
1263.00	407.25
1264.00	408.81
1265.00	386.19
1266.00	417.40
1267.00	422.08
1268.00	434.56
1269.00	407.25
1270.00	407.25
1271.00	399.45
1272.00	391.65
1273.00	391.65
1274.00	405.69
1275.00	414.27
1276.00	401.01
1277.00	365.90
1278.00	372.15
1279.00	373.71
1280.00	400.23
1281.00	415.06
1282.00	412.71
1283.00	409.59
1284.00	390.09
1285.00	394.77
1286.00	419.74
1287.00	424.42
1288.00	450.16
1289.00	427.54
1290.00	446.26
1291.00	413.49
1292.00	418.18
1293.00	409.59
1294.00	437.68
1295.00	428.32
1296.00	428.32
1297.00	417.40
1298.00	417.40
1299.00	420.52
1300.00	404.13
1301.00	397.11
1302.00	373.71
1303.00	362.00
1304.00	362.00
1305.00	347.96
1306.00	383.07
1307.00	376.83
1308.00	401.79
1309.00	403.35
1310.00	407.25
1311.00	403.35
1312.00	381.51
1313.00	406.47
1314.00	411.93
1315.00	414.27
1316.00	398.67
1317.00	400.23
1318.00	422.08
1319.00	425.98
1320.00	418.18
1321.00	391.65
1322.00	382.29
1323.00	390.09
1324.00	371.36
1325.00	379.95
1326.00	372.93
1327.00	406.47
1328.00	415.06
1329.00	441.58
1330.00	452.50
1331.00	458.75
1332.00	454.84
1333.00	459.53
1334.00	465.77
1335.00	447.04
1336.00	421.30
1337.00	409.59
1338.00	420.52
1339.00	404.91
1340.00	410.37
1341.00	388.53
1342.00	393.99
1343.00	369.80
1344.00	377.61
1345.00	392.43
1346.00	388.53
1347.00	397.11
1348.00	398.67
1349.00	412.71
1350.00	408.81
1351.00	415.06
1352.00	402.57
1353.00	392.43
1354.00	363.56
1355.00	382.29
1356.00	411.93
1357.00	440.02
1358.00	445.48
1359.00	436.12
1360.00	418.96
1361.00	425.98
1362.00	430.66
1363.00	433.00
1364.00	446.26
1365.00	440.02
1366.00	461.09
1367.00	436.12
1368.00	425.20
1369.00	406.47
1370.00	396.33
1371.00	386.19
1372.00	375.27
1373.00	390.09
1374.00	386.19
1375.00	394.77
1376.00	386.19
1377.00	403.35
1378.00	405.69
1379.00	414.27
1380.00	404.13
1381.00	411.15
1382.00	408.81
1383.00	422.08
1384.00	411.93
1385.00	403.35
1386.00	386.19
1387.00	388.53
1388.00	404.13
1389.00	430.66
1390.00	483.71
1391.00	465.77
1392.00	443.14
1393.00	397.11
1394.00	395.55
1395.00	405.69
1396.00	392.43
1397.00	396.33
1398.00	397.89
1399.00	408.81
1400.00	437.68
1401.00	429.88
1402.00	397.89
1403.00	382.29
1404.00	363.56
1405.00	394.77
1406.00	383.85
1407.00	393.99
1408.00	396.33
1409.00	393.99
1410.00	418.96
1411.00	402.57
1412.00	386.19
1413.00	363.56
1414.00	376.83
1415.00	378.39
1416.00	390.09
1417.00	370.58
1418.00	402.57
1419.00	390.09
1420.00	409.59
1421.00	386.19
1422.00	408.81
1423.00	428.32
1424.00	414.27
1425.00	380.73
1426.00	379.95
1427.00	397.89
1428.00	417.40
1429.00	387.75
1430.00	397.89
1431.00	403.35
1432.00	433.00
1433.00	418.18
1434.00	436.90
1435.00	410.37
1436.00	422.86
1437.00	386.97
1438.00	373.71
1439.00	351.08
1440.00	338.60
1441.00	370.58
1442.00	399.45
1443.00	434.56
1444.00	442.36
1445.00	436.12
1446.00	431.44
1447.00	415.84
1448.00	415.84
1449.00	408.03
1450.00	420.52
1451.00	383.85
1452.00	402.57
1453.00	402.57
1454.00	445.48
1455.00	421.30
1456.00	395.55
1457.00	383.07
1458.00	456.40
1459.00	470.45
1460.00	469.67
1461.00	397.11
1462.00	385.41
1463.00	404.91
1464.00	399.45
1465.00	403.35
1466.00	371.36
1467.00	368.24
1468.00	367.46
1469.00	378.39
1470.00	405.69
1471.00	426.76
1472.00	421.30
1473.00	394.77
1474.00	356.54
1475.00	378.39
1476.00	390.09
1477.00	387.75
1478.00	386.19
1479.00	398.67
1480.00	436.12
1481.00	423.64
1482.00	427.54
1483.00	409.59
1484.00	410.37
1485.00	404.91
1486.00	411.15
1487.00	408.81
1488.00	404.91
1489.00	408.03
1490.00	441.58
1491.00	419.74
1492.00	422.86
1493.00	397.11
1494.00	413.49
1495.00	390.09
1496.00	369.80
1497.00	365.90
1498.00	393.99
1499.00	386.19
1500.00	370.58
1501.00	351.86
1502.00	391.65
1503.00	425.98
1504.00	445.48
1505.00	412.71
1506.00	395.55
1507.00	384.63
1508.00	393.99
1509.00	395.55
1510.00	422.86
1511.00	429.10
1512.00	447.04
1513.00	432.22
1514.00	451.72
1515.00	447.82
1516.00	408.81
1517.00	369.80
1518.00	349.52
1519.00	372.15
1520.00	378.39
1521.00	408.81
1522.00	403.35
1523.00	436.12
1524.00	440.80
1525.00	433.00
1526.00	404.13
1527.00	396.33
1528.00	410.37
1529.00	420.52
1530.00	370.58
1531.00	386.19
1532.00	391.65
1533.00	454.06
1534.00	448.60
1535.00	464.21
1536.00	433.00
1537.00	418.18
1538.00	406.47
1539.00	396.33
1540.00	399.45
1541.00	414.27
1542.00	436.12
1543.00	435.34
1544.00	413.49
1545.00	404.91
1546.00	408.81
1547.00	425.20
1548.00	409.59
1549.00	412.71
1550.00	388.53
1551.00	378.39
1552.00	362.00
1553.00	374.49
1554.00	399.45
1555.00	393.99
1556.00	373.71
1557.00	359.66
1558.00	376.83
1559.00	385.41
1560.00	397.89
1561.00	394.77
1562.00	373.71
1563.00	379.95
1564.00	386.97
1565.00	403.35
1566.00	391.65
1567.00	388.53
1568.00	400.23
1569.00	390.09
1570.00	397.11
1571.00	378.39
1572.00	374.49
1573.00	353.42
1574.00	374.49
1575.00	386.19
1576.00	400.23
1577.00	383.07
1578.00	402.57
1579.00	409.59
1580.00	416.62
1581.00	388.53
1582.00	369.02
1583.00	351.08
1584.00	371.36
1585.00	386.19
1586.00	401.01
1587.00	374.49
1588.00	376.83
1589.00	369.02
1590.00	387.75
1591.00	357.32
1592.00	372.93
1593.00	357.32
1594.00	379.17
1595.00	371.36
1596.00	393.99
1597.00	378.39
1598.00	386.19
1599.00	392.43
1600.00	420.52
1601.00	402.57
1602.00	403.35
1603.00	377.61
1604.00	397.11
1605.00	410.37
1606.00	443.14
1607.00	451.72
1608.00	429.88
1609.00	408.03
1610.00	415.06
1611.00	402.57
1612.00	394.77
1613.00	369.02
1614.00	381.51
1615.00	361.22
1616.00	370.58
1617.00	354.98
1618.00	385.41
1619.00	387.75
1620.00	409.59
1621.00	400.23
1622.00	395.55
1623.00	373.71
1624.00	399.45
1625.00	379.17
1626.00	387.75
1627.00	376.83
1628.00	393.99
1629.00	347.96
1630.00	352.64
1631.00	346.40
1632.00	387.75
1633.00	375.27
1634.00	388.53
1635.00	429.88
1636.00	435.34
1637.00	444.70
1638.00	415.06
1639.00	415.84
1640.00	396.33
1641.00	411.93
1642.00	415.06
1643.00	415.84
1644.00	424.42
1645.00	425.20
1646.00	414.27
1647.00	346.40
1648.00	332.36
1649.00	351.08
1650.00	408.03
1651.00	410.37
1652.00	406.47
1653.00	385.41
1654.00	382.29
1655.00	380.73
1656.00	380.73
1657.00	369.02
1658.00	383.85
1659.00	395.55
1660.00	429.10
1661.00	452.50
1662.00	437.68
1663.00	412.71
1664.00	369.80
1665.00	358.88
1666.00	386.19
1667.00	411.93
1668.00	433.78
1669.00	432.22
1670.00	406.47
1671.00	416.62
1672.00	417.40
1673.00	433.00
1674.00	432.22
1675.00	399.45
1676.00	395.55
1677.00	391.65
1678.00	393.99
1679.00	350.30
1680.00	342.50
1681.00	344.84
1682.00	354.20
1683.00	369.02
1684.00	417.40
1685.00	513.36
1686.00	635.85
1687.00	814.51
1688.00	1048.56
1689.00	1254.53
1690.00	1388.72
1691.00	1374.67
1692.00	1255.31
1693.00	1089.91
1694.00	876.14
1695.00	656.91
1696.00	525.06
1697.00	472.01
1698.00	481.37
1699.00	454.06
1700.00	408.81
1701.00	390.87
1702.00	378.39
1703.00	421.30
1704.00	418.18
1705.00	395.55
1706.00	362.78
1707.00	365.12
1708.00	365.12
1709.00	379.95
1710.00	372.93
1711.00	368.24
1712.00	370.58
1713.00	384.63
1714.00	392.43
1715.00	390.09
1716.00	366.68
1717.00	361.22
1718.00	363.56
1719.00	387.75
1720.00	383.07
1721.00	373.71
1722.00	363.56
1723.00	369.02
1724.00	359.66
1725.00	371.36
1726.00	377.61
1727.00	391.65
1728.00	395.55
1729.00	428.32
1730.00	436.90
1731.00	436.12
1732.00	404.13
1733.00	390.87
1734.00	369.02
1735.00	380.73
1736.00	389.31
1737.00	390.87
1738.00	371.36
1739.00	357.32
1740.00	360.44
1741.00	362.00
1742.00	374.49
1743.00	370.58
1744.00	356.54
1745.00	354.98
1746.00	365.90
1747.00	369.80
1748.00	381.51
1749.00	367.46
1750.00	416.62
1751.00	407.25
1752.00	399.45
1753.00	365.90
1754.00	378.39
1755.00	408.81
1756.00	448.60
1757.00	429.10
1758.00	409.59
1759.00	374.49
1760.00	378.39
1761.00	399.45
1762.00	419.74
1763.00	421.30
1764.00	404.13
1765.00	381.51
1766.00	380.73
1767.00	383.07
1768.00	406.47
1769.00	411.93
1770.00	412.71
1771.00	398.67
1772.00	385.41
1773.00	379.17
1774.00	390.87
1775.00	399.45
1776.00	405.69
1777.00	391.65
1778.00	403.35
1779.00	404.13
1780.00	396.33
1781.00	359.66
1782.00	351.08
1783.00	370.58
1784.00	395.55
1785.00	408.81
1786.00	390.87
1787.00	380.73
1788.00	363.56
1789.00	367.46
1790.00	376.83
1791.00	407.25
1792.00	436.90
1793.00	430.66
1794.00	412.71
1795.00	369.80
1796.00	374.49
1797.00	379.95
1798.00	379.17
1799.00	362.00
1800.00	361.22
1801.00	363.56
1802.00	388.53
1803.00	365.90
1804.00	369.80
1805.00	369.02
1806.00	394.77
1807.00	397.89
1808.00	400.23
1809.00	412.71
1810.00	410.37
1811.00	386.19
1812.00	370.58
1813.00	370.58
1814.00	412.71
1815.00	406.47
1816.00	417.40
1817.00	363.56
1818.00	356.54
1819.00	375.27
1820.00	398.67
1821.00	422.08
1822.00	388.53
1823.00	381.51
1824.00	362.78
1825.00	358.10
1826.00	362.78
1827.00	365.90
1828.00	395.55
1829.00	418.18
1830.00	437.68
1831.00	424.42
1832.00	397.89
1833.00	362.00
1834.00	351.08
1835.00	365.12
1836.00	390.87
1837.00	408.81
1838.00	422.86
1839.00	433.00
1840.00	418.18
1841.00	411.15
1842.00	403.35
1843.00	407.25
1844.00	382.29
1845.00	365.12
1846.00	354.98
1847.00	351.86
1848.00	371.36
1849.00	369.80
1850.00	370.58
1851.00	362.00
1852.00	362.78
1853.00	370.58
1854.00	376.05
1855.00	393.99
1856.00	395.55
1857.00	403.35
1858.00	374.49
1859.00	372.93
1860.00	354.98
1861.00	382.29
1862.00	388.53
1863.00	396.33
1864.00	375.27
1865.00	387.75
1866.00	376.83
1867.00	412.71
1868.00	418.18
1869.00	420.52
1870.00	416.62
1871.00	408.03
1872.00	436.12
1873.00	408.81
1874.00	412.71
1875.00	374.49
1876.00	388.53
1877.00	376.83
1878.00	401.79
1879.00	385.41
1880.00	390.09
1881.00	378.39
1882.00	398.67
1883.00	391.65
1884.00	381.51
1885.00	398.67
1886.00	422.86
1887.00	449.38
1888.00	431.44
1889.00	419.74
1890.00	420.52
1891.00	425.98
1892.00	399.45
1893.00	383.85
1894.00	358.10
1895.00	386.97
1896.00	415.84
1897.00	440.80
1898.00	431.44
1899.00	411.15
1900.00	407.25
1901.00	383.07
1902.00	367.46
1903.00	369.02
1904.00	380.73
1905.00	391.65
1906.00	393.21
1907.00	401.79
1908.00	404.91
1909.00	403.35
1910.00	404.91
1911.00	394.77
1912.00	378.39
1913.00	357.32
1914.00	337.82
1915.00	353.42
1916.00	379.95
1917.00	418.96
1918.00	432.22
1919.00	437.68
1920.00	411.93
1921.00	397.89
1922.00	370.58
1923.00	360.44
1924.00	376.83
1925.00	401.79
1926.00	395.55
1927.00	363.56
1928.00	345.62
1929.00	369.02
1930.00	389.31
1931.00	378.39
1932.00	396.33
1933.00	386.97
1934.00	385.41
1935.00	375.27
1936.00	397.11
1937.00	425.98
1938.00	404.13
1939.00	375.27
1940.00	374.49
1941.00	384.63
1942.00	393.21
1943.00	397.89
1944.00	399.45
1945.00	379.17
1946.00	379.95
1947.00	386.19
1948.00	401.01
1949.00	393.21
1950.00	387.75
1951.00	393.21
1952.00	384.63
1953.00	386.97
1954.00	390.87
1955.00	390.87
1956.00	376.83
1957.00	376.83
1958.00	380.73
1959.00	386.97
1960.00	391.65
1961.00	379.95
1962.00	386.19
1963.00	374.49
1964.00	385.41
1965.00	361.22
1966.00	356.54
1967.00	362.00
1968.00	387.75
1969.00	403.35
1970.00	404.13
1971.00	402.57
1972.00	415.84
1973.00	411.93
1974.00	409.59
1975.00	384.63
1976.00	377.61
1977.00	383.07
1978.00	378.39
1979.00	367.46
1980.00	370.58
1981.00	401.79
1982.00	412.71
1983.00	411.15
1984.00	401.79
1985.00	414.27
1986.00	399.45
1987.00	370.58
1988.00	349.52
1989.00	352.64
1990.00	371.36
1991.00	390.09
1992.00	400.23
1993.00	390.09
1994.00	390.09
1995.00	394.77
1996.00	377.61
1997.00	364.34
1998.00	360.44
1999.00	387.75
2000.00	383.07
2001.00	371.36
2002.00	388.53
2003.00	381.51
2004.00	374.49
2005.00	347.96
2006.00	365.12
2007.00	377.61
2008.00	394.77
2009.00	394.77
2010.00	411.15
2011.00	398.67
2012.00	405.69
2013.00	395.55
2014.00	401.01
2015.00	383.07
2016.00	356.54
2017.00	338.60
2018.00	360.44
2019.00	379.95
2020.00	403.35
2021.00	393.21
2022.00	390.87
2023.00	383.85
2024.00	376.05
2025.00	363.56
2026.00	353.42
2027.00	372.93
2028.00	374.49
2029.00	396.33
2030.00	377.61
2031.00	382.29
2032.00	370.58
2033.00	367.46
2034.00	371.36
2035.00	362.78
2036.00	348.74
2037.00	357.32
2038.00	362.00
2039.00	377.61
2040.00	378.39
2041.00	351.86
2042.00	366.68
2043.00	357.32
2044.00	386.97
2045.00	379.95
2046.00	387.75
2047.00	386.19
>>>>>End Processed Spectral Data<<<<<
