SpectraSuite Data File
++++++++++++++++++++++++++++++++++++
Date: Thu Nov 16 14:27:24 EST 2017
User: cheriyan
Dark Spectrum Present: No
Reference Spectrum Present: No
Number of Sampled Component Spectra: 1
Spectrometers: USB2+H05261
Integration Time (usec): 100000 (USB2+H05261)
Spectra Averaged: 1 (USB2+H05261)
Boxcar Smoothing: 1 (USB2+H05261)
Correct for Electrical Dark: No (USB2+H05261)
Strobe/Lamp Enabled: No (USB2+H05261)
Correct for Detector Non-linearity: No (USB2+H05261)
Correct for Stray Light: No (USB2+H05261)
Number of Pixels in Processed Spectrum: 2048
>>>>>Begin Processed Spectral Data<<<<<
0.00	252.78
1.00	252.78
2.00	263.70
3.00	247.32
4.00	267.60
5.00	244.20
6.00	262.92
7.00	223.91
8.00	231.71
9.00	217.67
10.00	212.99
11.00	202.07
12.00	204.41
13.00	213.77
14.00	237.95
15.00	229.37
16.00	241.08
17.00	260.58
18.00	266.04
19.00	277.74
20.00	222.35
21.00	225.47
22.00	248.88
23.00	294.91
24.00	341.72
25.00	326.11
26.00	330.80
27.00	324.55
28.00	340.94
29.00	353.42
30.00	358.10
31.00	369.80
32.00	367.46
33.00	377.61
34.00	382.29
35.00	389.31
36.00	400.23
37.00	377.61
38.00	373.71
39.00	384.63
40.00	418.18
41.00	437.68
42.00	403.35
43.00	384.63
44.00	374.49
45.00	390.87
46.00	390.87
47.00	386.97
48.00	392.43
49.00	412.71
50.00	429.10
51.00	440.02
52.00	456.40
53.00	458.75
54.00	438.46
55.00	414.27
56.00	405.69
57.00	374.49
58.00	362.78
59.00	343.28
60.00	372.15
61.00	360.44
62.00	376.05
63.00	372.93
64.00	390.87
65.00	401.01
66.00	405.69
67.00	403.35
68.00	376.83
69.00	363.56
70.00	362.78
71.00	370.58
72.00	379.17
73.00	349.52
74.00	347.18
75.00	363.56
76.00	389.31
77.00	412.71
78.00	408.81
79.00	409.59
80.00	402.57
81.00	389.31
82.00	416.62
83.00	401.01
84.00	411.93
85.00	386.19
86.00	380.73
87.00	376.05
88.00	391.65
89.00	408.03
90.00	390.09
91.00	368.24
92.00	369.80
93.00	367.46
94.00	381.51
95.00	385.41
96.00	418.96
97.00	416.62
98.00	404.13
99.00	379.17
100.00	372.93
101.00	352.64
102.00	347.18
103.00	358.10
104.00	382.29
105.00	390.87
106.00	404.91
107.00	393.99
108.00	418.96
109.00	402.57
110.00	405.69
111.00	389.31
112.00	394.77
113.00	452.50
114.00	451.72
115.00	420.52
116.00	356.54
117.00	350.30
118.00	347.18
119.00	385.41
120.00	384.63
121.00	405.69
122.00	375.27
123.00	365.12
124.00	362.00
125.00	351.86
126.00	349.52
127.00	357.32
128.00	377.61
129.00	393.99
130.00	369.02
131.00	370.58
132.00	375.27
133.00	405.69
134.00	390.87
135.00	389.31
136.00	372.15
137.00	374.49
138.00	358.88
139.00	372.93
140.00	398.67
141.00	431.44
142.00	412.71
143.00	377.61
144.00	346.40
145.00	360.44
146.00	352.64
147.00	367.46
148.00	366.68
149.00	382.29
150.00	399.45
151.00	433.00
152.00	442.36
153.00	402.57
154.00	385.41
155.00	372.93
156.00	377.61
157.00	379.17
158.00	393.21
159.00	438.46
160.00	409.59
161.00	407.25
162.00	394.77
163.00	424.42
164.00	441.58
165.00	427.54
166.00	412.71
167.00	386.97
168.00	397.89
169.00	401.79
170.00	408.03
171.00	397.11
172.00	376.05
173.00	369.02
174.00	390.87
175.00	413.49
176.00	429.10
177.00	392.43
178.00	376.05
179.00	369.80
180.00	407.25
181.00	423.64
182.00	433.00
183.00	423.64
184.00	429.88
185.00	411.15
186.00	383.85
187.00	372.15
188.00	383.07
189.00	387.75
190.00	393.99
191.00	403.35
192.00	421.30
193.00	413.49
194.00	408.81
195.00	390.09
196.00	392.43
197.00	385.41
198.00	390.87
199.00	400.23
200.00	407.25
201.00	423.64
202.00	415.84
203.00	401.01
204.00	398.67
205.00	407.25
206.00	461.87
207.00	479.81
208.00	468.89
209.00	430.66
210.00	431.44
211.00	443.92
212.00	435.34
213.00	404.13
214.00	367.46
215.00	366.68
216.00	361.22
217.00	389.31
218.00	398.67
219.00	430.66
220.00	429.88
221.00	440.80
222.00	410.37
223.00	416.62
224.00	405.69
225.00	419.74
226.00	429.10
227.00	410.37
228.00	398.67
229.00	369.02
230.00	392.43
231.00	401.01
232.00	425.20
233.00	401.79
234.00	393.21
235.00	390.87
236.00	383.85
237.00	395.55
238.00	368.24
239.00	396.33
240.00	390.09
241.00	392.43
242.00	379.95
243.00	383.07
244.00	411.15
245.00	435.34
246.00	438.46
247.00	427.54
248.00	409.59
249.00	397.89
250.00	373.71
251.00	366.68
252.00	362.00
253.00	391.65
254.00	423.64
255.00	426.76
256.00	397.89
257.00	375.27
258.00	422.86
259.00	437.68
260.00	425.98
261.00	362.78
262.00	358.88
263.00	378.39
264.00	411.93
265.00	431.44
266.00	408.03
267.00	409.59
268.00	407.25
269.00	428.32
270.00	425.98
271.00	430.66
272.00	423.64
273.00	421.30
274.00	415.84
275.00	413.49
276.00	416.62
277.00	393.99
278.00	392.43
279.00	397.11
280.00	418.96
281.00	403.35
282.00	397.11
283.00	384.63
284.00	416.62
285.00	393.99
286.00	393.99
287.00	372.15
288.00	396.33
289.00	383.07
290.00	382.29
291.00	370.58
292.00	375.27
293.00	408.81
294.00	401.01
295.00	386.97
296.00	360.44
297.00	391.65
298.00	409.59
299.00	397.11
300.00	360.44
301.00	389.31
302.00	397.89
303.00	402.57
304.00	400.23
305.00	404.91
306.00	406.47
307.00	399.45
308.00	404.13
309.00	414.27
310.00	405.69
311.00	393.99
312.00	403.35
313.00	429.88
314.00	421.30
315.00	391.65
316.00	369.02
317.00	379.95
318.00	403.35
319.00	400.23
320.00	409.59
321.00	404.13
322.00	388.53
323.00	391.65
324.00	391.65
325.00	404.13
326.00	403.35
327.00	419.74
328.00	430.66
329.00	408.81
330.00	394.77
331.00	399.45
332.00	425.20
333.00	454.06
334.00	442.36
335.00	441.58
336.00	404.91
337.00	374.49
338.00	342.50
339.00	340.16
340.00	404.91
341.00	447.04
342.00	455.62
343.00	430.66
344.00	413.49
345.00	414.27
346.00	425.98
347.00	422.08
348.00	440.80
349.00	425.20
350.00	417.40
351.00	396.33
352.00	387.75
353.00	404.91
354.00	410.37
355.00	416.62
356.00	411.93
357.00	418.18
358.00	411.15
359.00	420.52
360.00	419.74
361.00	406.47
362.00	383.85
363.00	364.34
364.00	390.87
365.00	411.15
366.00	407.25
367.00	417.40
368.00	440.80
369.00	450.16
370.00	429.88
371.00	389.31
372.00	391.65
373.00	392.43
374.00	401.01
375.00	376.05
376.00	383.85
377.00	404.91
378.00	447.04
379.00	433.00
380.00	428.32
381.00	406.47
382.00	409.59
383.00	374.49
384.00	374.49
385.00	362.78
386.00	397.89
387.00	405.69
388.00	410.37
389.00	369.80
390.00	348.74
391.00	356.54
392.00	383.07
393.00	414.27
394.00	425.98
395.00	430.66
396.00	460.31
397.00	440.80
398.00	447.04
399.00	401.01
400.00	425.98
401.00	416.62
402.00	432.22
403.00	422.08
404.00	418.18
405.00	406.47
406.00	397.89
407.00	390.87
408.00	390.87
409.00	392.43
410.00	415.84
411.00	398.67
412.00	405.69
413.00	386.97
414.00	401.79
415.00	379.17
416.00	361.22
417.00	371.36
418.00	370.58
419.00	388.53
420.00	411.93
421.00	435.34
422.00	433.00
423.00	414.27
424.00	398.67
425.00	408.03
426.00	383.07
427.00	410.37
428.00	418.96
429.00	450.94
430.00	420.52
431.00	388.53
432.00	354.98
433.00	379.17
434.00	385.41
435.00	390.09
436.00	386.19
437.00	418.18
438.00	425.20
439.00	415.06
440.00	380.73
441.00	374.49
442.00	373.71
443.00	398.67
444.00	397.89
445.00	386.19
446.00	373.71
447.00	376.83
448.00	354.20
449.00	322.21
450.00	319.87
451.00	376.05
452.00	415.84
453.00	431.44
454.00	426.76
455.00	423.64
456.00	425.20
457.00	391.65
458.00	373.71
459.00	374.49
460.00	385.41
461.00	393.99
462.00	372.15
463.00	372.93
464.00	385.41
465.00	400.23
466.00	411.15
467.00	399.45
468.00	383.07
469.00	382.29
470.00	373.71
471.00	402.57
472.00	383.85
473.00	397.89
474.00	384.63
475.00	399.45
476.00	385.41
477.00	379.17
478.00	394.77
479.00	426.76
480.00	426.76
481.00	441.58
482.00	450.16
483.00	452.50
484.00	443.92
485.00	414.27
486.00	444.70
487.00	416.62
488.00	416.62
489.00	437.68
490.00	439.24
491.00	422.08
492.00	366.68
493.00	390.09
494.00	418.96
495.00	433.78
496.00	415.06
497.00	433.78
498.00	434.56
499.00	447.82
500.00	436.90
501.00	445.48
502.00	406.47
503.00	391.65
504.00	375.27
505.00	386.97
506.00	408.03
507.00	408.03
508.00	437.68
509.00	440.80
510.00	467.33
511.00	464.21
512.00	452.50
513.00	452.50
514.00	436.12
515.00	424.42
516.00	418.18
517.00	427.54
518.00	440.02
519.00	415.06
520.00	424.42
521.00	417.40
522.00	422.08
523.00	401.01
524.00	422.86
525.00	425.20
526.00	430.66
527.00	420.52
528.00	429.10
529.00	445.48
530.00	432.22
531.00	412.71
532.00	410.37
533.00	398.67
534.00	403.35
535.00	401.79
536.00	422.08
537.00	438.46
538.00	433.78
539.00	425.20
540.00	417.40
541.00	413.49
542.00	384.63
543.00	391.65
544.00	404.91
545.00	392.43
546.00	399.45
547.00	372.15
548.00	416.62
549.00	383.85
550.00	405.69
551.00	400.23
552.00	414.27
553.00	404.91
554.00	397.89
555.00	416.62
556.00	437.68
557.00	450.94
558.00	456.40
559.00	442.36
560.00	443.14
561.00	422.86
562.00	409.59
563.00	406.47
564.00	381.51
565.00	383.07
566.00	408.03
567.00	419.74
568.00	425.98
569.00	397.11
570.00	412.71
571.00	411.93
572.00	405.69
573.00	397.89
574.00	411.93
575.00	410.37
576.00	395.55
577.00	365.12
578.00	373.71
579.00	380.73
580.00	388.53
581.00	371.36
582.00	350.30
583.00	374.49
584.00	388.53
585.00	427.54
586.00	431.44
587.00	410.37
588.00	390.09
589.00	388.53
590.00	420.52
591.00	443.14
592.00	415.06
593.00	408.81
594.00	410.37
595.00	433.78
596.00	431.44
597.00	423.64
598.00	432.22
599.00	441.58
600.00	440.80
601.00	441.58
602.00	417.40
603.00	419.74
604.00	410.37
605.00	435.34
606.00	443.14
607.00	432.22
608.00	415.84
609.00	398.67
610.00	392.43
611.00	399.45
612.00	408.81
613.00	407.25
614.00	396.33
615.00	397.89
616.00	432.22
617.00	423.64
618.00	422.08
619.00	407.25
620.00	411.15
621.00	396.33
622.00	369.80
623.00	359.66
624.00	362.00
625.00	366.68
626.00	394.77
627.00	394.77
628.00	436.12
629.00	443.14
630.00	476.69
631.00	431.44
632.00	419.74
633.00	398.67
634.00	466.55
635.00	550.81
636.00	674.07
637.00	748.97
638.00	765.36
639.00	723.23
640.00	661.59
641.00	595.28
642.00	558.61
643.00	493.07
644.00	450.16
645.00	382.29
646.00	379.95
647.00	422.86
648.00	432.22
649.00	425.98
650.00	401.01
651.00	403.35
652.00	397.11
653.00	382.29
654.00	435.34
655.00	445.48
656.00	454.06
657.00	408.81
658.00	418.18
659.00	396.33
660.00	411.93
661.00	399.45
662.00	418.96
663.00	384.63
664.00	384.63
665.00	383.85
666.00	416.62
667.00	430.66
668.00	432.22
669.00	415.06
670.00	397.89
671.00	418.18
672.00	416.62
673.00	446.26
674.00	433.00
675.00	468.89
676.00	466.55
677.00	479.03
678.00	475.13
679.00	499.31
680.00	514.14
681.00	511.02
682.00	467.33
683.00	440.02
684.00	423.64
685.00	418.18
686.00	414.27
687.00	402.57
688.00	420.52
689.00	381.51
690.00	373.71
691.00	365.90
692.00	407.25
693.00	401.79
694.00	408.03
695.00	407.25
696.00	443.14
697.00	429.10
698.00	417.40
699.00	393.21
700.00	415.84
701.00	414.27
702.00	418.96
703.00	415.06
704.00	425.98
705.00	442.36
706.00	406.47
707.00	412.71
708.00	397.11
709.00	397.11
710.00	384.63
711.00	378.39
712.00	401.01
713.00	400.23
714.00	396.33
715.00	386.97
716.00	397.89
717.00	408.03
718.00	440.02
719.00	432.22
720.00	432.22
721.00	417.40
722.00	415.06
723.00	437.68
724.00	427.54
725.00	462.65
726.00	433.78
727.00	430.66
728.00	392.43
729.00	417.40
730.00	422.86
731.00	418.18
732.00	402.57
733.00	415.84
734.00	421.30
735.00	413.49
736.00	386.19
737.00	409.59
738.00	406.47
739.00	399.45
740.00	383.85
741.00	408.03
742.00	427.54
743.00	454.84
744.00	444.70
745.00	441.58
746.00	429.10
747.00	408.81
748.00	409.59
749.00	396.33
750.00	426.76
751.00	401.79
752.00	410.37
753.00	397.89
754.00	420.52
755.00	390.87
756.00	377.61
757.00	376.05
758.00	377.61
759.00	393.21
760.00	395.55
761.00	415.06
762.00	422.08
763.00	434.56
764.00	447.04
765.00	457.96
766.00	447.04
767.00	449.38
768.00	398.67
769.00	377.61
770.00	344.84
771.00	390.09
772.00	427.54
773.00	427.54
774.00	409.59
775.00	391.65
776.00	385.41
777.00	384.63
778.00	379.95
779.00	401.01
780.00	401.01
781.00	406.47
782.00	422.86
783.00	508.68
784.00	525.84
785.00	486.83
786.00	392.43
787.00	369.80
788.00	400.23
789.00	383.07
790.00	400.23
791.00	363.56
792.00	379.95
793.00	372.93
794.00	401.79
795.00	426.76
796.00	423.64
797.00	411.15
798.00	395.55
799.00	411.93
800.00	432.22
801.00	443.14
802.00	423.64
803.00	413.49
804.00	411.93
805.00	413.49
806.00	418.18
807.00	419.74
808.00	411.15
809.00	411.15
810.00	404.91
811.00	411.15
812.00	403.35
813.00	394.77
814.00	393.99
815.00	415.06
816.00	417.40
817.00	410.37
818.00	375.27
819.00	377.61
820.00	385.41
821.00	412.71
822.00	421.30
823.00	436.12
824.00	424.42
825.00	417.40
826.00	404.91
827.00	381.51
828.00	369.02
829.00	380.73
830.00	436.12
831.00	453.28
832.00	448.60
833.00	434.56
834.00	438.46
835.00	429.10
836.00	409.59
837.00	401.01
838.00	408.81
839.00	412.71
840.00	410.37
841.00	415.06
842.00	410.37
843.00	410.37
844.00	404.13
845.00	405.69
846.00	408.03
847.00	402.57
848.00	424.42
849.00	441.58
850.00	437.68
851.00	412.71
852.00	389.31
853.00	397.89
854.00	408.81
855.00	391.65
856.00	389.31
857.00	366.68
858.00	392.43
859.00	391.65
860.00	425.20
861.00	430.66
862.00	424.42
863.00	402.57
864.00	388.53
865.00	403.35
866.00	422.86
867.00	423.64
868.00	420.52
869.00	404.13
870.00	422.08
871.00	419.74
872.00	425.20
873.00	407.25
874.00	396.33
875.00	378.39
876.00	392.43
877.00	395.55
878.00	406.47
879.00	378.39
880.00	393.21
881.00	397.89
882.00	429.10
883.00	423.64
884.00	417.40
885.00	404.13
886.00	411.93
887.00	436.90
888.00	427.54
889.00	422.86
890.00	397.11
891.00	393.99
892.00	390.87
893.00	416.62
894.00	419.74
895.00	441.58
896.00	441.58
897.00	444.70
898.00	419.74
899.00	415.84
900.00	409.59
901.00	411.15
902.00	376.05
903.00	395.55
904.00	390.87
905.00	390.87
906.00	388.53
907.00	398.67
908.00	417.40
909.00	746.63
910.00	759.11
911.00	768.48
912.00	441.58
913.00	410.37
914.00	397.11
915.00	404.13
916.00	391.65
917.00	405.69
918.00	405.69
919.00	431.44
920.00	425.98
921.00	402.57
922.00	404.91
923.00	404.91
924.00	425.98
925.00	410.37
926.00	397.11
927.00	389.31
928.00	396.33
929.00	411.15
930.00	407.25
931.00	427.54
932.00	429.10
933.00	419.74
934.00	409.59
935.00	431.44
936.00	445.48
937.00	428.32
938.00	415.06
939.00	407.25
940.00	436.90
941.00	441.58
942.00	450.94
943.00	441.58
944.00	402.57
945.00	404.91
946.00	396.33
947.00	417.40
948.00	387.75
949.00	408.81
950.00	408.81
951.00	466.55
952.00	452.50
953.00	447.82
954.00	416.62
955.00	414.27
956.00	407.25
957.00	401.79
958.00	401.01
959.00	393.21
960.00	393.21
961.00	410.37
962.00	426.76
963.00	421.30
964.00	408.81
965.00	396.33
966.00	401.01
967.00	383.07
968.00	391.65
969.00	401.79
970.00	408.81
971.00	418.96
972.00	403.35
973.00	374.49
974.00	368.24
975.00	354.98
976.00	390.09
977.00	374.49
978.00	390.87
979.00	375.27
980.00	380.73
981.00	404.91
982.00	412.71
983.00	399.45
984.00	381.51
985.00	383.07
986.00	372.93
987.00	354.98
988.00	358.88
989.00	372.15
990.00	378.39
991.00	362.78
992.00	374.49
993.00	373.71
994.00	396.33
995.00	420.52
996.00	451.72
997.00	448.60
998.00	418.18
999.00	390.09
1000.00	355.76
1001.00	372.93
1002.00	392.43
1003.00	399.45
1004.00	409.59
1005.00	406.47
1006.00	439.24
1007.00	446.26
1008.00	411.93
1009.00	390.09
1010.00	387.75
1011.00	422.08
1012.00	465.77
1013.00	449.38
1014.00	435.34
1015.00	397.11
1016.00	383.07
1017.00	401.01
1018.00	394.77
1019.00	432.22
1020.00	424.42
1021.00	424.42
1022.00	401.79
1023.00	381.51
1024.00	383.07
1025.00	385.41
1026.00	395.55
1027.00	411.15
1028.00	381.51
1029.00	372.15
1030.00	374.49
1031.00	395.55
1032.00	404.13
1033.00	386.97
1034.00	384.63
1035.00	390.09
1036.00	387.75
1037.00	386.19
1038.00	404.13
1039.00	429.88
1040.00	460.31
1041.00	466.55
1042.00	448.60
1043.00	434.56
1044.00	389.31
1045.00	422.08
1046.00	421.30
1047.00	434.56
1048.00	403.35
1049.00	383.85
1050.00	380.73
1051.00	388.53
1052.00	405.69
1053.00	424.42
1054.00	401.79
1055.00	405.69
1056.00	396.33
1057.00	414.27
1058.00	426.76
1059.00	422.86
1060.00	414.27
1061.00	390.09
1062.00	400.23
1063.00	429.88
1064.00	438.46
1065.00	436.90
1066.00	402.57
1067.00	404.13
1068.00	410.37
1069.00	431.44
1070.00	425.98
1071.00	418.96
1072.00	394.77
1073.00	378.39
1074.00	382.29
1075.00	389.31
1076.00	401.79
1077.00	393.21
1078.00	396.33
1079.00	412.71
1080.00	408.81
1081.00	414.27
1082.00	394.77
1083.00	411.93
1084.00	414.27
1085.00	419.74
1086.00	420.52
1087.00	432.22
1088.00	425.20
1089.00	396.33
1090.00	390.87
1091.00	397.11
1092.00	433.78
1093.00	442.36
1094.00	438.46
1095.00	436.90
1096.00	428.32
1097.00	431.44
1098.00	428.32
1099.00	425.98
1100.00	415.84
1101.00	386.19
1102.00	362.78
1103.00	376.05
1104.00	393.21
1105.00	399.45
1106.00	413.49
1107.00	407.25
1108.00	406.47
1109.00	393.21
1110.00	408.81
1111.00	417.40
1112.00	406.47
1113.00	394.77
1114.00	377.61
1115.00	394.77
1116.00	379.95
1117.00	382.29
1118.00	403.35
1119.00	418.96
1120.00	470.45
1121.00	461.87
1122.00	494.63
1123.00	448.60
1124.00	464.99
1125.00	427.54
1126.00	435.34
1127.00	401.79
1128.00	433.00
1129.00	440.80
1130.00	440.80
1131.00	427.54
1132.00	426.76
1133.00	428.32
1134.00	423.64
1135.00	419.74
1136.00	424.42
1137.00	401.79
1138.00	399.45
1139.00	386.97
1140.00	385.41
1141.00	399.45
1142.00	408.81
1143.00	432.22
1144.00	439.24
1145.00	440.80
1146.00	455.62
1147.00	458.74
1148.00	464.99
1149.00	460.31
1150.00	452.50
1151.00	427.54
1152.00	418.18
1153.00	421.30
1154.00	425.98
1155.00	390.09
1156.00	393.21
1157.00	418.18
1158.00	433.78
1159.00	404.13
1160.00	385.41
1161.00	390.87
1162.00	397.89
1163.00	422.86
1164.00	424.42
1165.00	429.10
1166.00	419.74
1167.00	431.44
1168.00	420.52
1169.00	422.08
1170.00	435.34
1171.00	464.99
1172.00	441.58
1173.00	413.49
1174.00	384.63
1175.00	386.97
1176.00	404.13
1177.00	429.88
1178.00	445.48
1179.00	461.09
1180.00	446.26
1181.00	447.04
1182.00	463.43
1183.00	464.21
1184.00	458.74
1185.00	427.54
1186.00	420.52
1187.00	415.84
1188.00	407.25
1189.00	416.62
1190.00	410.37
1191.00	400.23
1192.00	397.11
1193.00	415.84
1194.00	425.98
1195.00	421.30
1196.00	407.25
1197.00	425.20
1198.00	438.46
1199.00	455.62
1200.00	450.16
1201.00	425.20
1202.00	422.86
1203.00	397.11
1204.00	416.62
1205.00	407.25
1206.00	416.62
1207.00	446.26
1208.00	439.24
1209.00	424.42
1210.00	390.09
1211.00	398.67
1212.00	400.23
1213.00	399.45
1214.00	404.13
1215.00	424.42
1216.00	433.00
1217.00	410.37
1218.00	382.29
1219.00	378.39
1220.00	399.45
1221.00	428.32
1222.00	415.84
1223.00	415.84
1224.00	412.71
1225.00	415.84
1226.00	400.23
1227.00	401.01
1228.00	411.15
1229.00	429.10
1230.00	421.30
1231.00	436.12
1232.00	426.76
1233.00	453.28
1234.00	464.21
1235.00	481.37
1236.00	448.60
1237.00	415.84
1238.00	405.69
1239.00	423.64
1240.00	428.32
1241.00	448.60
1242.00	425.98
1243.00	447.04
1244.00	418.96
1245.00	444.70
1246.00	421.30
1247.00	386.97
1248.00	374.49
1249.00	362.00
1250.00	408.81
1251.00	424.42
1252.00	438.46
1253.00	427.54
1254.00	377.61
1255.00	366.68
1256.00	355.76
1257.00	379.95
1258.00	390.09
1259.00	376.05
1260.00	390.09
1261.00	397.11
1262.00	439.24
1263.00	454.06
1264.00	454.06
1265.00	450.94
1266.00	450.16
1267.00	439.24
1268.00	412.71
1269.00	391.65
1270.00	404.91
1271.00	447.04
1272.00	449.38
1273.00	438.46
1274.00	409.59
1275.00	417.40
1276.00	444.70
1277.00	464.99
1278.00	454.84
1279.00	435.34
1280.00	423.64
1281.00	432.22
1282.00	422.08
1283.00	425.20
1284.00	433.00
1285.00	434.56
1286.00	420.52
1287.00	414.27
1288.00	441.58
1289.00	429.88
1290.00	409.59
1291.00	409.59
1292.00	421.30
1293.00	437.68
1294.00	393.21
1295.00	383.07
1296.00	362.00
1297.00	376.05
1298.00	429.88
1299.00	431.44
1300.00	471.23
1301.00	415.06
1302.00	440.02
1303.00	380.73
1304.00	379.95
1305.00	340.16
1306.00	372.93
1307.00	386.19
1308.00	437.68
1309.00	445.48
1310.00	448.60
1311.00	440.02
1312.00	431.44
1313.00	457.18
1314.00	451.72
1315.00	429.10
1316.00	407.25
1317.00	392.43
1318.00	427.54
1319.00	428.32
1320.00	432.22
1321.00	421.30
1322.00	411.93
1323.00	415.06
1324.00	394.77
1325.00	423.64
1326.00	438.46
1327.00	450.16
1328.00	429.88
1329.00	428.32
1330.00	461.87
1331.00	465.77
1332.00	488.39
1333.00	462.65
1334.00	443.92
1335.00	406.47
1336.00	414.27
1337.00	429.88
1338.00	430.66
1339.00	430.66
1340.00	407.25
1341.00	408.03
1342.00	381.51
1343.00	347.18
1344.00	349.52
1345.00	338.60
1346.00	379.17
1347.00	373.71
1348.00	366.68
1349.00	382.29
1350.00	372.15
1351.00	415.84
1352.00	418.96
1353.00	458.75
1354.00	409.59
1355.00	385.41
1356.00	334.70
1357.00	376.83
1358.00	391.65
1359.00	418.18
1360.00	397.89
1361.00	415.06
1362.00	409.59
1363.00	422.08
1364.00	419.74
1365.00	441.58
1366.00	439.24
1367.00	442.36
1368.00	446.26
1369.00	475.91
1370.00	445.48
1371.00	418.18
1372.00	375.27
1373.00	388.53
1374.00	409.59
1375.00	422.86
1376.00	411.93
1377.00	411.15
1378.00	409.59
1379.00	406.47
1380.00	397.89
1381.00	407.25
1382.00	407.25
1383.00	416.62
1384.00	442.36
1385.00	468.11
1386.00	455.62
1387.00	439.24
1388.00	406.47
1389.00	424.42
1390.00	409.59
1391.00	430.66
1392.00	399.45
1393.00	414.27
1394.00	424.42
1395.00	450.94
1396.00	459.53
1397.00	448.60
1398.00	439.24
1399.00	415.84
1400.00	407.25
1401.00	432.22
1402.00	434.56
1403.00	447.04
1404.00	432.22
1405.00	440.02
1406.00	418.96
1407.00	405.69
1408.00	383.85
1409.00	405.69
1410.00	423.64
1411.00	435.34
1412.00	422.86
1413.00	388.53
1414.00	386.97
1415.00	374.49
1416.00	386.97
1417.00	365.90
1418.00	378.39
1419.00	365.12
1420.00	387.75
1421.00	382.29
1422.00	391.65
1423.00	402.57
1424.00	428.32
1425.00	450.94
1426.00	423.64
1427.00	408.03
1428.00	388.53
1429.00	385.41
1430.00	362.78
1431.00	363.56
1432.00	370.58
1433.00	390.09
1434.00	393.21
1435.00	404.91
1436.00	430.66
1437.00	429.10
1438.00	423.64
1439.00	375.27
1440.00	363.56
1441.00	376.05
1442.00	404.13
1443.00	416.62
1444.00	404.13
1445.00	406.47
1446.00	390.87
1447.00	412.71
1448.00	408.81
1449.00	419.74
1450.00	402.57
1451.00	411.93
1452.00	403.35
1453.00	414.27
1454.00	411.15
1455.00	422.86
1456.00	393.21
1457.00	402.57
1458.00	461.09
1459.00	469.67
1460.00	478.25
1461.00	417.40
1462.00	423.64
1463.00	401.79
1464.00	418.96
1465.00	426.76
1466.00	439.24
1467.00	452.50
1468.00	446.26
1469.00	473.57
1470.00	438.46
1471.00	433.00
1472.00	379.95
1473.00	356.54
1474.00	362.00
1475.00	377.61
1476.00	392.43
1477.00	405.69
1478.00	415.84
1479.00	461.87
1480.00	435.34
1481.00	422.08
1482.00	373.71
1483.00	406.47
1484.00	404.91
1485.00	433.00
1486.00	394.77
1487.00	368.24
1488.00	362.00
1489.00	386.19
1490.00	429.10
1491.00	404.91
1492.00	392.43
1493.00	369.80
1494.00	418.18
1495.00	442.36
1496.00	440.02
1497.00	387.75
1498.00	380.73
1499.00	383.85
1500.00	376.05
1501.00	371.36
1502.00	364.34
1503.00	383.07
1504.00	369.80
1505.00	379.17
1506.00	380.73
1507.00	395.55
1508.00	379.17
1509.00	379.95
1510.00	372.93
1511.00	360.44
1512.00	377.61
1513.00	391.65
1514.00	415.06
1515.00	389.31
1516.00	390.09
1517.00	408.03
1518.00	406.47
1519.00	413.49
1520.00	393.99
1521.00	416.62
1522.00	401.79
1523.00	404.91
1524.00	412.71
1525.00	394.77
1526.00	413.49
1527.00	408.03
1528.00	441.58
1529.00	428.32
1530.00	428.32
1531.00	411.93
1532.00	418.96
1533.00	426.76
1534.00	422.08
1535.00	439.24
1536.00	410.37
1537.00	380.73
1538.00	349.52
1539.00	366.68
1540.00	377.61
1541.00	390.09
1542.00	383.07
1543.00	369.02
1544.00	339.38
1545.00	339.38
1546.00	362.78
1547.00	387.75
1548.00	370.58
1549.00	381.51
1550.00	369.80
1551.00	393.21
1552.00	375.27
1553.00	377.61
1554.00	373.71
1555.00	412.71
1556.00	418.18
1557.00	428.32
1558.00	422.86
1559.00	437.68
1560.00	413.49
1561.00	394.77
1562.00	394.77
1563.00	408.03
1564.00	405.69
1565.00	390.09
1566.00	382.29
1567.00	402.57
1568.00	404.91
1569.00	417.40
1570.00	425.98
1571.00	411.93
1572.00	408.81
1573.00	363.56
1574.00	374.49
1575.00	388.53
1576.00	397.89
1577.00	422.08
1578.00	420.52
1579.00	436.90
1580.00	433.00
1581.00	440.80
1582.00	428.32
1583.00	406.47
1584.00	384.63
1585.00	406.47
1586.00	419.74
1587.00	433.78
1588.00	438.46
1589.00	408.03
1590.00	397.89
1591.00	386.97
1592.00	407.25
1593.00	402.57
1594.00	396.33
1595.00	384.63
1596.00	408.03
1597.00	419.74
1598.00	418.18
1599.00	409.59
1600.00	392.43
1601.00	417.40
1602.00	429.10
1603.00	443.14
1604.00	458.74
1605.00	453.28
1606.00	440.02
1607.00	406.47
1608.00	398.67
1609.00	397.89
1610.00	408.03
1611.00	395.55
1612.00	397.11
1613.00	418.96
1614.00	419.74
1615.00	424.42
1616.00	396.33
1617.00	381.51
1618.00	388.53
1619.00	368.24
1620.00	380.73
1621.00	362.00
1622.00	370.58
1623.00	368.24
1624.00	393.99
1625.00	417.40
1626.00	404.91
1627.00	402.57
1628.00	382.29
1629.00	418.18
1630.00	406.47
1631.00	408.81
1632.00	358.10
1633.00	353.42
1634.00	354.98
1635.00	415.06
1636.00	401.79
1637.00	418.18
1638.00	362.78
1639.00	369.02
1640.00	358.88
1641.00	407.25
1642.00	401.01
1643.00	408.81
1644.00	393.99
1645.00	425.98
1646.00	388.53
1647.00	391.65
1648.00	379.17
1649.00	395.55
1650.00	375.27
1651.00	374.49
1652.00	407.25
1653.00	436.90
1654.00	458.74
1655.00	436.90
1656.00	406.47
1657.00	385.41
1658.00	393.21
1659.00	404.13
1660.00	406.47
1661.00	410.37
1662.00	402.57
1663.00	408.03
1664.00	413.49
1665.00	402.57
1666.00	408.03
1667.00	404.13
1668.00	435.34
1669.00	421.30
1670.00	393.99
1671.00	398.67
1672.00	411.15
1673.00	422.08
1674.00	418.96
1675.00	390.09
1676.00	388.53
1677.00	378.39
1678.00	390.09
1679.00	380.73
1680.00	372.93
1681.00	364.34
1682.00	390.87
1683.00	409.59
1684.00	455.62
1685.00	611.66
1686.00	836.35
1687.00	1159.35
1688.00	1531.49
1689.00	1898.17
1690.00	2161.87
1691.00	2200.88
1692.00	1997.26
1693.00	1665.68
1694.00	1254.53
1695.00	941.68
1696.00	700.60
1697.00	562.51
1698.00	468.89
1699.00	429.10
1700.00	401.01
1701.00	410.37
1702.00	397.11
1703.00	422.08
1704.00	412.71
1705.00	415.06
1706.00	386.19
1707.00	385.41
1708.00	400.23
1709.00	397.89
1710.00	404.13
1711.00	378.39
1712.00	380.73
1713.00	383.85
1714.00	383.07
1715.00	402.57
1716.00	404.13
1717.00	388.53
1718.00	395.55
1719.00	404.13
1720.00	443.92
1721.00	427.54
1722.00	435.34
1723.00	427.54
1724.00	431.44
1725.00	422.86
1726.00	425.98
1727.00	426.76
1728.00	412.71
1729.00	401.01
1730.00	408.03
1731.00	411.93
1732.00	400.23
1733.00	391.65
1734.00	388.53
1735.00	430.66
1736.00	419.74
1737.00	422.08
1738.00	401.01
1739.00	393.21
1740.00	388.53
1741.00	390.87
1742.00	407.25
1743.00	388.53
1744.00	361.22
1745.00	374.49
1746.00	411.15
1747.00	421.30
1748.00	414.27
1749.00	403.35
1750.00	407.25
1751.00	404.13
1752.00	401.01
1753.00	408.81
1754.00	398.67
1755.00	388.53
1756.00	388.53
1757.00	374.49
1758.00	380.73
1759.00	364.34
1760.00	390.87
1761.00	391.65
1762.00	408.81
1763.00	401.79
1764.00	390.87
1765.00	383.85
1766.00	395.55
1767.00	409.59
1768.00	403.35
1769.00	376.83
1770.00	397.89
1771.00	436.12
1772.00	449.38
1773.00	436.12
1774.00	409.59
1775.00	401.01
1776.00	404.91
1777.00	404.13
1778.00	420.52
1779.00	400.23
1780.00	386.19
1781.00	360.44
1782.00	346.40
1783.00	358.88
1784.00	390.09
1785.00	412.71
1786.00	389.31
1787.00	365.90
1788.00	358.10
1789.00	362.78
1790.00	383.85
1791.00	389.31
1792.00	380.73
1793.00	360.44
1794.00	349.52
1795.00	378.39
1796.00	386.19
1797.00	393.21
1798.00	388.53
1799.00	402.57
1800.00	390.09
1801.00	396.33
1802.00	385.41
1803.00	415.06
1804.00	410.37
1805.00	400.23
1806.00	387.75
1807.00	397.89
1808.00	429.88
1809.00	419.74
1810.00	403.35
1811.00	362.78
1812.00	379.95
1813.00	387.75
1814.00	418.96
1815.00	401.79
1816.00	418.96
1817.00	411.15
1818.00	431.44
1819.00	417.40
1820.00	417.40
1821.00	393.21
1822.00	399.45
1823.00	403.35
1824.00	413.49
1825.00	404.91
1826.00	379.95
1827.00	408.03
1828.00	425.98
1829.00	455.62
1830.00	444.70
1831.00	425.98
1832.00	431.44
1833.00	422.08
1834.00	399.45
1835.00	363.56
1836.00	372.93
1837.00	372.15
1838.00	395.55
1839.00	378.39
1840.00	386.97
1841.00	370.58
1842.00	386.19
1843.00	404.91
1844.00	391.65
1845.00	386.97
1846.00	375.27
1847.00	383.85
1848.00	404.13
1849.00	429.88
1850.00	447.82
1851.00	411.93
1852.00	383.07
1853.00	358.88
1854.00	363.56
1855.00	373.71
1856.00	387.75
1857.00	403.35
1858.00	393.21
1859.00	405.69
1860.00	402.57
1861.00	430.66
1862.00	413.49
1863.00	403.35
1864.00	376.83
1865.00	378.39
1866.00	367.46
1867.00	382.29
1868.00	396.33
1869.00	393.21
1870.00	393.99
1871.00	364.34
1872.00	379.17
1873.00	341.72
1874.00	364.34
1875.00	359.66
1876.00	375.27
1877.00	358.10
1878.00	377.61
1879.00	385.41
1880.00	397.11
1881.00	390.09
1882.00	392.43
1883.00	384.63
1884.00	379.95
1885.00	383.85
1886.00	404.91
1887.00	403.35
1888.00	401.79
1889.00	382.29
1890.00	387.75
1891.00	380.73
1892.00	390.09
1893.00	369.80
1894.00	388.53
1895.00	396.33
1896.00	422.86
1897.00	422.08
1898.00	400.23
1899.00	387.75
1900.00	386.19
1901.00	399.45
1902.00	390.09
1903.00	382.29
1904.00	383.85
1905.00	384.63
1906.00	410.37
1907.00	398.67
1908.00	425.20
1909.00	411.93
1910.00	402.57
1911.00	384.63
1912.00	332.36
1913.00	354.98
1914.00	345.62
1915.00	393.99
1916.00	382.29
1917.00	383.07
1918.00	401.01
1919.00	423.64
1920.00	437.68
1921.00	418.96
1922.00	431.44
1923.00	453.28
1924.00	448.60
1925.00	395.55
1926.00	354.98
1927.00	348.74
1928.00	364.34
1929.00	371.36
1930.00	372.93
1931.00	372.15
1932.00	354.20
1933.00	360.44
1934.00	365.12
1935.00	402.57
1936.00	411.93
1937.00	431.44
1938.00	437.68
1939.00	417.40
1940.00	402.57
1941.00	354.20
1942.00	328.46
1943.00	327.68
1944.00	368.24
1945.00	418.18
1946.00	421.30
1947.00	403.35
1948.00	386.97
1949.00	376.83
1950.00	379.95
1951.00	383.85
1952.00	398.67
1953.00	392.43
1954.00	386.19
1955.00	388.53
1956.00	391.65
1957.00	390.87
1958.00	374.49
1959.00	382.29
1960.00	389.31
1961.00	374.49
1962.00	377.61
1963.00	376.05
1964.00	393.99
1965.00	386.97
1966.00	365.12
1967.00	360.44
1968.00	344.06
1969.00	359.66
1970.00	354.20
1971.00	390.87
1972.00	388.53
1973.00	416.62
1974.00	399.45
1975.00	401.01
1976.00	380.73
1977.00	367.46
1978.00	370.58
1979.00	380.73
1980.00	397.89
1981.00	378.39
1982.00	390.09
1983.00	374.49
1984.00	411.93
1985.00	380.73
1986.00	386.97
1987.00	363.56
1988.00	384.63
1989.00	404.13
1990.00	425.20
1991.00	411.93
1992.00	386.19
1993.00	370.58
1994.00	398.67
1995.00	391.65
1996.00	386.97
1997.00	357.32
1998.00	382.29
1999.00	386.19
2000.00	425.20
2001.00	422.08
2002.00	447.04
2003.00	437.68
2004.00	430.66
2005.00	407.25
2006.00	388.53
2007.00	407.25
2008.00	416.62
2009.00	407.25
2010.00	392.43
2011.00	364.34
2012.00	359.66
2013.00	370.58
2014.00	396.33
2015.00	415.06
2016.00	408.81
2017.00	398.67
2018.00	382.29
2019.00	375.27
2020.00	379.17
2021.00	406.47
2022.00	408.03
2023.00	406.47
2024.00	401.79
2025.00	397.89
2026.00	375.27
2027.00	359.66
2028.00	382.29
2029.00	393.21
2030.00	411.15
2031.00	386.97
2032.00	396.33
2033.00	386.97
2034.00	419.74
2035.00	414.27
2036.00	414.27
2037.00	396.33
2038.00	421.30
2039.00	403.35
2040.00	379.95
2041.00	349.52
2042.00	357.32
2043.00	371.36
2044.00	397.89
2045.00	390.87
2046.00	380.73
2047.00	360.44
>>>>>End Processed Spectral Data<<<<<
