SpectraSuite Data File
++++++++++++++++++++++++++++++++++++
Date: Thu Nov 16 14:27:25 EST 2017
User: cheriyan
Dark Spectrum Present: No
Reference Spectrum Present: No
Number of Sampled Component Spectra: 1
Spectrometers: USB2+H05261
Integration Time (usec): 100000 (USB2+H05261)
Spectra Averaged: 1 (USB2+H05261)
Boxcar Smoothing: 1 (USB2+H05261)
Correct for Electrical Dark: No (USB2+H05261)
Strobe/Lamp Enabled: No (USB2+H05261)
Correct for Detector Non-linearity: No (USB2+H05261)
Correct for Stray Light: No (USB2+H05261)
Number of Pixels in Processed Spectrum: 2048
>>>>>Begin Processed Spectral Data<<<<<
0.00	290.23
1.00	290.23
2.00	266.82
3.00	254.34
4.00	240.30
5.00	266.82
6.00	249.66
7.00	250.44
8.00	234.83
9.00	249.66
10.00	241.08
11.00	226.25
12.00	216.89
13.00	234.05
14.00	237.17
15.00	244.98
16.00	216.89
17.00	228.59
18.00	225.47
19.00	240.30
20.00	239.51
21.00	244.20
22.00	262.14
23.00	269.16
24.00	330.02
25.00	332.36
26.00	351.08
27.00	321.43
28.00	330.02
29.00	347.96
30.00	361.22
31.00	404.91
32.00	407.25
33.00	402.57
34.00	378.39
35.00	348.74
36.00	339.38
37.00	323.77
38.00	340.16
39.00	372.93
40.00	396.33
41.00	430.66
42.00	422.86
43.00	423.64
44.00	416.62
45.00	414.27
46.00	409.59
47.00	400.23
48.00	406.47
49.00	405.69
50.00	425.20
51.00	417.40
52.00	430.66
53.00	420.52
54.00	413.49
55.00	405.69
56.00	385.41
57.00	394.77
58.00	381.51
59.00	393.21
60.00	365.90
61.00	370.58
62.00	362.00
63.00	390.09
64.00	411.15
65.00	411.93
66.00	398.67
67.00	407.25
68.00	433.00
69.00	437.68
70.00	409.59
71.00	385.41
72.00	377.61
73.00	365.12
74.00	355.76
75.00	369.02
76.00	369.02
77.00	368.24
78.00	375.27
79.00	399.45
80.00	390.87
81.00	373.71
82.00	354.20
83.00	358.10
84.00	377.61
85.00	359.66
86.00	365.90
87.00	330.80
88.00	355.76
89.00	355.76
90.00	380.73
91.00	387.75
92.00	393.21
93.00	401.79
94.00	404.13
95.00	411.93
96.00	397.11
97.00	376.83
98.00	370.58
99.00	373.71
100.00	377.61
101.00	394.77
102.00	395.55
103.00	412.71
104.00	401.01
105.00	407.25
106.00	377.61
107.00	376.05
108.00	365.12
109.00	381.51
110.00	376.05
111.00	369.80
112.00	365.90
113.00	355.76
114.00	361.22
115.00	368.24
116.00	387.75
117.00	417.40
118.00	404.91
119.00	399.45
120.00	374.49
121.00	397.11
122.00	381.51
123.00	371.36
124.00	370.58
125.00	391.65
126.00	408.81
127.00	389.31
128.00	409.59
129.00	409.59
130.00	411.93
131.00	380.73
132.00	377.61
133.00	390.09
134.00	376.05
135.00	390.09
136.00	362.78
137.00	394.77
138.00	378.39
139.00	402.57
140.00	380.73
141.00	380.73
142.00	380.73
143.00	378.39
144.00	358.10
145.00	364.34
146.00	379.95
147.00	416.62
148.00	432.22
149.00	419.74
150.00	400.23
151.00	404.13
152.00	421.30
153.00	425.20
154.00	430.66
155.00	435.34
156.00	424.42
157.00	389.31
158.00	381.51
159.00	398.67
160.00	408.81
161.00	409.59
162.00	394.77
163.00	376.83
164.00	351.08
165.00	371.36
166.00	358.88
167.00	367.46
168.00	368.24
169.00	409.59
170.00	419.74
171.00	419.74
172.00	376.83
173.00	385.41
174.00	401.01
175.00	421.30
176.00	419.74
177.00	397.11
178.00	401.01
179.00	393.99
180.00	368.24
181.00	364.34
182.00	350.30
183.00	369.80
184.00	386.19
185.00	382.29
186.00	382.29
187.00	365.12
188.00	383.85
189.00	390.09
190.00	393.21
191.00	392.43
192.00	368.24
193.00	365.12
194.00	351.86
195.00	374.49
196.00	371.36
197.00	377.61
198.00	369.80
199.00	385.41
200.00	375.27
201.00	395.55
202.00	372.15
203.00	384.63
204.00	367.46
205.00	380.73
206.00	383.07
207.00	367.46
208.00	375.27
209.00	400.23
210.00	433.00
211.00	423.64
212.00	393.99
213.00	362.00
214.00	364.34
215.00	388.53
216.00	390.09
217.00	397.89
218.00	392.43
219.00	393.21
220.00	372.93
221.00	374.49
222.00	397.11
223.00	416.62
224.00	411.15
225.00	405.69
226.00	406.47
227.00	400.23
228.00	382.29
229.00	362.78
230.00	347.18
231.00	342.50
232.00	351.86
233.00	356.54
234.00	362.78
235.00	390.87
236.00	383.07
237.00	377.61
238.00	351.86
239.00	383.85
240.00	398.67
241.00	386.19
242.00	378.39
243.00	383.07
244.00	399.45
245.00	388.53
246.00	390.09
247.00	382.29
248.00	372.15
249.00	368.24
250.00	362.78
251.00	386.97
252.00	408.81
253.00	443.92
254.00	428.32
255.00	422.86
256.00	404.91
257.00	395.55
258.00	392.43
259.00	418.18
260.00	420.52
261.00	414.27
262.00	372.93
263.00	420.52
264.00	402.57
265.00	425.20
266.00	424.42
267.00	454.06
268.00	455.62
269.00	425.20
270.00	411.93
271.00	422.08
272.00	440.80
273.00	447.04
274.00	429.88
275.00	420.52
276.00	431.44
277.00	440.80
278.00	426.76
279.00	408.81
280.00	410.37
281.00	404.91
282.00	407.25
283.00	397.11
284.00	410.37
285.00	401.01
286.00	378.39
287.00	363.56
288.00	370.58
289.00	391.65
290.00	398.67
291.00	404.13
292.00	397.11
293.00	399.45
294.00	389.31
295.00	411.93
296.00	435.34
297.00	429.10
298.00	394.77
299.00	379.17
300.00	361.22
301.00	377.61
302.00	359.66
303.00	379.95
304.00	407.25
305.00	429.10
306.00	438.46
307.00	415.06
308.00	389.31
309.00	361.22
310.00	358.10
311.00	376.83
312.00	397.89
313.00	405.69
314.00	418.96
315.00	420.52
316.00	406.47
317.00	411.93
318.00	419.74
319.00	433.78
320.00	408.81
321.00	415.06
322.00	406.47
323.00	418.96
324.00	419.74
325.00	401.79
326.00	384.63
327.00	382.29
328.00	428.32
329.00	446.26
330.00	421.30
331.00	393.21
332.00	370.58
333.00	381.51
334.00	386.19
335.00	392.43
336.00	375.27
337.00	379.95
338.00	383.07
339.00	372.93
340.00	353.42
341.00	386.97
342.00	411.15
343.00	401.79
344.00	384.63
345.00	394.77
346.00	425.20
347.00	401.01
348.00	401.79
349.00	372.93
350.00	395.55
351.00	415.06
352.00	438.46
353.00	449.38
354.00	430.66
355.00	418.18
356.00	384.63
357.00	386.97
358.00	393.21
359.00	390.09
360.00	384.63
361.00	391.65
362.00	427.54
363.00	425.20
364.00	397.89
365.00	380.73
366.00	379.17
367.00	421.30
368.00	451.72
369.00	482.93
370.00	450.94
371.00	412.71
372.00	364.34
373.00	377.61
374.00	391.65
375.00	404.13
376.00	404.13
377.00	421.30
378.00	421.30
379.00	395.55
380.00	377.61
381.00	382.29
382.00	404.91
383.00	397.11
384.00	433.00
385.00	448.60
386.00	446.26
387.00	397.11
388.00	384.63
389.00	378.39
390.00	414.27
391.00	400.23
392.00	397.11
393.00	380.73
394.00	404.13
395.00	411.93
396.00	395.55
397.00	407.25
398.00	380.73
399.00	391.65
400.00	381.51
401.00	413.49
402.00	395.55
403.00	371.36
404.00	373.71
405.00	412.71
406.00	440.80
407.00	446.26
408.00	411.93
409.00	390.87
410.00	373.71
411.00	391.65
412.00	412.71
413.00	410.37
414.00	397.89
415.00	372.93
416.00	403.35
417.00	409.59
418.00	438.46
419.00	418.18
420.00	429.10
421.00	386.97
422.00	380.73
423.00	393.21
424.00	397.11
425.00	403.35
426.00	401.01
427.00	406.47
428.00	423.64
429.00	417.40
430.00	420.52
431.00	410.37
432.00	413.49
433.00	426.76
434.00	423.64
435.00	404.13
436.00	415.06
437.00	418.96
438.00	424.42
439.00	416.62
440.00	398.67
441.00	417.40
442.00	424.42
443.00	448.60
444.00	424.42
445.00	394.77
446.00	372.15
447.00	369.80
448.00	376.83
449.00	408.81
450.00	395.55
451.00	418.96
452.00	404.13
453.00	429.88
454.00	390.09
455.00	370.58
456.00	383.85
457.00	412.71
458.00	419.74
459.00	398.67
460.00	411.93
461.00	418.18
462.00	394.77
463.00	367.46
464.00	358.10
465.00	379.95
466.00	386.97
467.00	412.71
468.00	425.20
469.00	457.96
470.00	421.30
471.00	427.54
472.00	405.69
473.00	443.14
474.00	440.80
475.00	418.96
476.00	381.51
477.00	360.44
478.00	361.22
479.00	408.81
480.00	447.04
481.00	481.37
482.00	444.70
483.00	438.46
484.00	421.30
485.00	438.46
486.00	422.08
487.00	425.20
488.00	416.62
489.00	417.40
490.00	399.45
491.00	402.57
492.00	412.71
493.00	416.62
494.00	427.54
495.00	392.43
496.00	379.95
497.00	372.93
498.00	365.90
499.00	401.01
500.00	416.62
501.00	442.36
502.00	409.59
503.00	383.07
504.00	393.21
505.00	413.49
506.00	442.36
507.00	448.60
508.00	493.85
509.00	461.87
510.00	454.06
511.00	392.43
512.00	411.93
513.00	390.87
514.00	402.57
515.00	394.77
516.00	401.01
517.00	390.09
518.00	391.65
519.00	413.49
520.00	441.58
521.00	438.46
522.00	406.47
523.00	397.89
524.00	382.29
525.00	419.74
526.00	413.49
527.00	454.84
528.00	418.18
529.00	395.55
530.00	372.15
531.00	379.95
532.00	415.84
533.00	406.47
534.00	430.66
535.00	411.93
536.00	415.84
537.00	393.21
538.00	393.21
539.00	413.49
540.00	414.27
541.00	431.44
542.00	385.41
543.00	377.61
544.00	342.50
545.00	353.42
546.00	345.62
547.00	373.71
548.00	390.87
549.00	409.59
550.00	376.05
551.00	365.90
552.00	358.88
553.00	387.75
554.00	402.57
555.00	394.77
556.00	407.25
557.00	415.06
558.00	436.90
559.00	427.54
560.00	395.55
561.00	387.75
562.00	381.51
563.00	369.02
564.00	357.32
565.00	365.90
566.00	391.65
567.00	393.21
568.00	376.05
569.00	375.27
570.00	379.17
571.00	393.21
572.00	385.41
573.00	391.65
574.00	397.11
575.00	408.03
576.00	400.23
577.00	380.73
578.00	382.29
579.00	399.45
580.00	411.15
581.00	404.13
582.00	404.13
583.00	404.13
584.00	418.96
585.00	450.16
586.00	454.06
587.00	424.42
588.00	402.57
589.00	405.69
590.00	404.91
591.00	393.99
592.00	384.63
593.00	401.79
594.00	372.15
595.00	363.56
596.00	348.74
597.00	358.88
598.00	376.05
599.00	393.99
600.00	395.55
601.00	394.77
602.00	362.00
603.00	362.00
604.00	363.56
605.00	397.11
606.00	405.69
607.00	380.73
608.00	389.31
609.00	396.33
610.00	404.91
611.00	409.59
612.00	429.88
613.00	435.34
614.00	404.13
615.00	382.29
616.00	395.55
617.00	424.42
618.00	432.22
619.00	430.66
620.00	413.49
621.00	389.31
622.00	386.19
623.00	383.07
624.00	394.77
625.00	394.77
626.00	407.25
627.00	401.01
628.00	405.69
629.00	403.35
630.00	402.57
631.00	392.43
632.00	402.57
633.00	450.16
634.00	512.58
635.00	571.09
636.00	663.93
637.00	741.95
638.00	785.64
639.00	757.55
640.00	662.37
641.00	584.35
642.00	487.61
643.00	443.92
644.00	429.88
645.00	420.52
646.00	427.54
647.00	415.84
648.00	422.08
649.00	412.71
650.00	405.69
651.00	390.87
652.00	413.49
653.00	425.98
654.00	479.81
655.00	448.60
656.00	454.84
657.00	407.25
658.00	407.25
659.00	385.41
660.00	389.31
661.00	408.03
662.00	445.48
663.00	466.55
664.00	450.94
665.00	425.98
666.00	411.93
667.00	422.08
668.00	401.01
669.00	407.25
670.00	411.93
671.00	422.08
672.00	425.98
673.00	410.37
674.00	436.90
675.00	454.84
676.00	480.59
677.00	509.46
678.00	502.44
679.00	511.02
680.00	454.84
681.00	447.04
682.00	399.45
683.00	418.18
684.00	408.03
685.00	415.06
686.00	392.43
687.00	391.65
688.00	390.09
689.00	383.85
690.00	370.58
691.00	377.61
692.00	402.57
693.00	411.93
694.00	429.10
695.00	441.58
696.00	446.26
697.00	429.88
698.00	406.47
699.00	393.99
700.00	429.10
701.00	432.22
702.00	432.22
703.00	411.93
704.00	391.65
705.00	402.57
706.00	401.79
707.00	417.40
708.00	405.69
709.00	382.29
710.00	383.07
711.00	378.39
712.00	396.33
713.00	402.57
714.00	404.13
715.00	409.59
716.00	417.40
717.00	425.20
718.00	463.43
719.00	425.20
720.00	450.94
721.00	415.06
722.00	469.67
723.00	466.55
724.00	455.62
725.00	418.18
726.00	391.65
727.00	383.07
728.00	387.75
729.00	394.77
730.00	397.89
731.00	408.03
732.00	411.15
733.00	425.20
734.00	436.90
735.00	418.18
736.00	404.13
737.00	369.80
738.00	375.27
739.00	387.75
740.00	391.65
741.00	404.91
742.00	388.53
743.00	408.03
744.00	402.57
745.00	428.32
746.00	433.78
747.00	438.46
748.00	417.40
749.00	395.55
750.00	393.99
751.00	405.69
752.00	411.15
753.00	403.35
754.00	408.81
755.00	396.33
756.00	407.25
757.00	405.69
758.00	418.18
759.00	416.62
760.00	418.96
761.00	411.93
762.00	426.76
763.00	416.62
764.00	427.54
765.00	406.47
766.00	421.30
767.00	411.15
768.00	397.11
769.00	365.90
770.00	372.93
771.00	385.41
772.00	399.45
773.00	404.91
774.00	403.35
775.00	396.33
776.00	378.39
777.00	354.98
778.00	372.93
779.00	401.01
780.00	433.78
781.00	433.00
782.00	415.84
783.00	485.27
784.00	479.81
785.00	507.90
786.00	412.71
787.00	406.47
788.00	363.56
789.00	375.27
790.00	374.49
791.00	387.75
792.00	394.77
793.00	410.37
794.00	406.47
795.00	405.69
796.00	386.19
797.00	381.51
798.00	398.67
799.00	379.95
800.00	380.73
801.00	346.40
802.00	338.60
803.00	358.10
804.00	390.09
805.00	422.86
806.00	399.45
807.00	386.19
808.00	400.23
809.00	412.71
810.00	425.98
811.00	408.81
812.00	411.93
813.00	404.91
814.00	403.35
815.00	396.33
816.00	394.77
817.00	404.13
818.00	430.66
819.00	426.76
820.00	429.88
821.00	413.49
822.00	435.34
823.00	417.40
824.00	396.33
825.00	385.41
826.00	410.37
827.00	415.06
828.00	407.25
829.00	397.11
830.00	409.59
831.00	382.29
832.00	372.15
833.00	400.23
834.00	390.87
835.00	396.33
836.00	376.83
837.00	430.66
838.00	422.08
839.00	428.32
840.00	401.01
841.00	396.33
842.00	382.29
843.00	402.57
844.00	447.82
845.00	442.36
846.00	432.22
847.00	402.57
848.00	427.54
849.00	467.33
850.00	455.62
851.00	414.27
852.00	376.05
853.00	393.99
854.00	407.25
855.00	401.79
856.00	382.29
857.00	398.67
858.00	408.81
859.00	435.34
860.00	442.36
861.00	430.66
862.00	401.79
863.00	386.97
864.00	393.99
865.00	404.13
866.00	401.79
867.00	394.77
868.00	400.23
869.00	393.21
870.00	386.97
871.00	385.41
872.00	381.51
873.00	390.87
874.00	390.09
875.00	401.01
876.00	422.08
877.00	422.08
878.00	422.86
879.00	385.41
880.00	385.41
881.00	399.45
882.00	425.20
883.00	422.86
884.00	404.13
885.00	425.98
886.00	451.72
887.00	450.94
888.00	411.93
889.00	397.11
890.00	404.91
891.00	415.84
892.00	404.13
893.00	380.73
894.00	383.85
895.00	383.07
896.00	397.89
897.00	379.95
898.00	382.29
899.00	393.99
900.00	410.37
901.00	412.71
902.00	423.64
903.00	420.52
904.00	442.36
905.00	420.52
906.00	402.57
907.00	377.61
908.00	382.29
909.00	731.81
910.00	741.95
911.00	719.32
912.00	398.67
913.00	398.67
914.00	406.47
915.00	396.33
916.00	369.80
917.00	387.75
918.00	398.67
919.00	410.37
920.00	410.37
921.00	394.77
922.00	401.79
923.00	404.13
924.00	407.25
925.00	416.62
926.00	401.79
927.00	411.15
928.00	389.31
929.00	427.54
930.00	414.27
931.00	438.46
932.00	410.37
933.00	407.25
934.00	406.47
935.00	418.96
936.00	423.64
937.00	407.25
938.00	406.47
939.00	420.52
940.00	405.69
941.00	413.49
942.00	395.55
943.00	422.86
944.00	404.13
945.00	439.24
946.00	449.38
947.00	455.62
948.00	411.15
949.00	386.19
950.00	376.83
951.00	411.15
952.00	399.45
953.00	408.03
954.00	389.31
955.00	409.59
956.00	380.73
957.00	388.53
958.00	393.99
959.00	415.06
960.00	401.01
961.00	398.67
962.00	391.65
963.00	415.84
964.00	453.28
965.00	474.35
966.00	461.09
967.00	418.96
968.00	407.25
969.00	379.17
970.00	372.15
971.00	374.49
972.00	407.25
973.00	403.35
974.00	399.45
975.00	393.99
976.00	390.09
977.00	401.01
978.00	410.37
979.00	436.90
980.00	409.59
981.00	407.25
982.00	414.27
983.00	414.27
984.00	391.65
985.00	401.01
986.00	418.96
987.00	421.30
988.00	404.13
989.00	404.91
990.00	433.00
991.00	416.62
992.00	390.87
993.00	380.73
994.00	384.63
995.00	402.57
996.00	404.13
997.00	434.56
998.00	457.96
999.00	455.62
1000.00	436.12
1001.00	415.84
1002.00	405.69
1003.00	415.06
1004.00	411.15
1005.00	424.42
1006.00	408.81
1007.00	414.27
1008.00	397.11
1009.00	411.15
1010.00	436.12
1011.00	444.70
1012.00	436.90
1013.00	416.62
1014.00	422.08
1015.00	409.59
1016.00	400.23
1017.00	382.29
1018.00	371.36
1019.00	372.15
1020.00	375.27
1021.00	394.77
1022.00	393.99
1023.00	380.73
1024.00	399.45
1025.00	393.21
1026.00	404.91
1027.00	378.39
1028.00	397.89
1029.00	392.43
1030.00	410.37
1031.00	415.84
1032.00	441.58
1033.00	424.42
1034.00	409.59
1035.00	394.77
1036.00	390.87
1037.00	401.01
1038.00	391.65
1039.00	406.47
1040.00	401.01
1041.00	414.27
1042.00	411.93
1043.00	425.98
1044.00	446.26
1045.00	491.51
1046.00	473.57
1047.00	447.82
1048.00	386.19
1049.00	402.57
1050.00	388.53
1051.00	387.75
1052.00	386.19
1053.00	393.99
1054.00	412.71
1055.00	408.81
1056.00	422.08
1057.00	405.69
1058.00	404.91
1059.00	390.09
1060.00	393.21
1061.00	397.11
1062.00	399.45
1063.00	408.03
1064.00	399.45
1065.00	418.18
1066.00	413.49
1067.00	408.81
1068.00	390.87
1069.00	409.59
1070.00	398.67
1071.00	410.37
1072.00	409.59
1073.00	434.56
1074.00	422.86
1075.00	391.65
1076.00	382.29
1077.00	400.23
1078.00	422.86
1079.00	439.24
1080.00	442.36
1081.00	424.42
1082.00	383.85
1083.00	372.15
1084.00	383.85
1085.00	413.49
1086.00	420.52
1087.00	434.56
1088.00	440.02
1089.00	449.38
1090.00	437.68
1091.00	416.62
1092.00	411.93
1093.00	404.13
1094.00	419.74
1095.00	424.42
1096.00	411.15
1097.00	382.29
1098.00	380.73
1099.00	389.31
1100.00	413.49
1101.00	394.77
1102.00	401.79
1103.00	407.25
1104.00	416.62
1105.00	411.15
1106.00	407.25
1107.00	411.93
1108.00	422.86
1109.00	409.59
1110.00	412.71
1111.00	396.33
1112.00	399.45
1113.00	375.27
1114.00	389.31
1115.00	398.67
1116.00	428.32
1117.00	441.58
1118.00	436.90
1119.00	429.10
1120.00	428.32
1121.00	445.48
1122.00	456.40
1123.00	449.38
1124.00	453.28
1125.00	450.94
1126.00	457.96
1127.00	429.88
1128.00	393.21
1129.00	367.46
1130.00	380.73
1131.00	418.96
1132.00	424.42
1133.00	423.64
1134.00	406.47
1135.00	410.37
1136.00	409.59
1137.00	423.64
1138.00	422.86
1139.00	453.28
1140.00	440.80
1141.00	440.02
1142.00	404.91
1143.00	397.11
1144.00	405.69
1145.00	403.35
1146.00	434.56
1147.00	453.28
1148.00	455.62
1149.00	435.34
1150.00	436.12
1151.00	457.96
1152.00	453.28
1153.00	429.88
1154.00	390.87
1155.00	365.90
1156.00	353.42
1157.00	357.32
1158.00	373.71
1159.00	388.53
1160.00	427.54
1161.00	433.00
1162.00	438.46
1163.00	420.52
1164.00	434.56
1165.00	439.24
1166.00	436.90
1167.00	421.30
1168.00	422.08
1169.00	411.93
1170.00	401.01
1171.00	377.61
1172.00	404.13
1173.00	443.14
1174.00	464.21
1175.00	468.11
1176.00	442.36
1177.00	442.36
1178.00	426.76
1179.00	449.38
1180.00	472.01
1181.00	489.95
1182.00	508.68
1183.00	474.35
1184.00	434.56
1185.00	404.13
1186.00	412.71
1187.00	422.86
1188.00	425.20
1189.00	417.40
1190.00	399.45
1191.00	409.59
1192.00	416.62
1193.00	431.44
1194.00	390.09
1195.00	383.85
1196.00	386.97
1197.00	417.40
1198.00	425.98
1199.00	452.50
1200.00	451.72
1201.00	454.84
1202.00	439.24
1203.00	451.72
1204.00	433.00
1205.00	413.49
1206.00	374.49
1207.00	393.99
1208.00	440.80
1209.00	446.26
1210.00	432.22
1211.00	405.69
1212.00	433.00
1213.00	466.55
1214.00	483.71
1215.00	465.77
1216.00	415.84
1217.00	372.15
1218.00	375.27
1219.00	410.37
1220.00	423.64
1221.00	421.30
1222.00	410.37
1223.00	422.08
1224.00	410.37
1225.00	404.13
1226.00	374.49
1227.00	389.31
1228.00	399.45
1229.00	429.88
1230.00	420.52
1231.00	429.88
1232.00	432.22
1233.00	461.09
1234.00	480.59
1235.00	496.97
1236.00	504.00
1237.00	500.09
1238.00	482.93
1239.00	461.09
1240.00	432.22
1241.00	425.98
1242.00	433.00
1243.00	444.70
1244.00	436.12
1245.00	424.42
1246.00	401.01
1247.00	397.11
1248.00	385.41
1249.00	404.13
1250.00	416.62
1251.00	410.37
1252.00	406.47
1253.00	387.75
1254.00	393.21
1255.00	375.27
1256.00	382.29
1257.00	403.35
1258.00	415.06
1259.00	416.62
1260.00	404.13
1261.00	395.55
1262.00	407.25
1263.00	405.69
1264.00	418.18
1265.00	422.08
1266.00	422.08
1267.00	437.68
1268.00	429.88
1269.00	443.92
1270.00	452.50
1271.00	453.28
1272.00	440.80
1273.00	416.62
1274.00	399.45
1275.00	424.42
1276.00	429.88
1277.00	446.26
1278.00	408.81
1279.00	404.13
1280.00	400.23
1281.00	422.86
1282.00	436.12
1283.00	449.38
1284.00	453.28
1285.00	441.58
1286.00	424.42
1287.00	424.42
1288.00	429.88
1289.00	445.48
1290.00	433.78
1291.00	412.71
1292.00	389.31
1293.00	339.38
1294.00	368.24
1295.00	368.24
1296.00	413.49
1297.00	383.85
1298.00	407.25
1299.00	409.59
1300.00	425.98
1301.00	408.03
1302.00	405.69
1303.00	401.79
1304.00	429.10
1305.00	433.00
1306.00	460.31
1307.00	438.46
1308.00	450.94
1309.00	434.56
1310.00	439.24
1311.00	420.52
1312.00	403.35
1313.00	404.91
1314.00	394.77
1315.00	387.75
1316.00	383.07
1317.00	374.49
1318.00	362.00
1319.00	346.40
1320.00	351.86
1321.00	365.90
1322.00	404.91
1323.00	418.18
1324.00	448.60
1325.00	441.58
1326.00	466.55
1327.00	452.50
1328.00	454.84
1329.00	449.38
1330.00	450.16
1331.00	450.94
1332.00	450.94
1333.00	462.65
1334.00	454.84
1335.00	457.18
1336.00	450.94
1337.00	472.79
1338.00	479.03
1339.00	469.67
1340.00	416.62
1341.00	397.89
1342.00	395.55
1343.00	417.40
1344.00	413.49
1345.00	421.30
1346.00	418.18
1347.00	410.37
1348.00	379.95
1349.00	369.80
1350.00	362.78
1351.00	372.93
1352.00	373.71
1353.00	369.80
1354.00	369.80
1355.00	386.97
1356.00	392.43
1357.00	413.49
1358.00	433.78
1359.00	450.94
1360.00	423.64
1361.00	414.27
1362.00	404.13
1363.00	432.22
1364.00	415.84
1365.00	437.68
1366.00	438.46
1367.00	454.84
1368.00	447.82
1369.00	418.18
1370.00	394.77
1371.00	384.63
1372.00	389.31
1373.00	408.81
1374.00	426.76
1375.00	469.67
1376.00	477.47
1377.00	449.38
1378.00	412.71
1379.00	412.71
1380.00	439.24
1381.00	448.60
1382.00	447.82
1383.00	452.50
1384.00	450.16
1385.00	429.10
1386.00	395.55
1387.00	394.77
1388.00	374.49
1389.00	396.33
1390.00	394.77
1391.00	427.54
1392.00	433.78
1393.00	464.21
1394.00	464.99
1395.00	452.50
1396.00	425.20
1397.00	423.64
1398.00	436.12
1399.00	438.46
1400.00	425.98
1401.00	439.24
1402.00	423.64
1403.00	437.68
1404.00	418.18
1405.00	425.98
1406.00	404.91
1407.00	387.75
1408.00	397.89
1409.00	387.75
1410.00	406.47
1411.00	408.03
1412.00	445.48
1413.00	437.68
1414.00	432.22
1415.00	446.26
1416.00	436.90
1417.00	421.30
1418.00	376.05
1419.00	376.83
1420.00	393.99
1421.00	403.35
1422.00	430.66
1423.00	415.84
1424.00	420.52
1425.00	394.77
1426.00	416.62
1427.00	418.18
1428.00	411.93
1429.00	392.43
1430.00	385.41
1431.00	371.36
1432.00	375.27
1433.00	377.61
1434.00	422.08
1435.00	449.38
1436.00	446.26
1437.00	426.76
1438.00	405.69
1439.00	385.41
1440.00	390.09
1441.00	414.27
1442.00	447.82
1443.00	450.16
1444.00	426.76
1445.00	408.03
1446.00	404.91
1447.00	412.71
1448.00	414.27
1449.00	390.87
1450.00	368.24
1451.00	372.93
1452.00	391.65
1453.00	414.27
1454.00	408.03
1455.00	401.01
1456.00	376.83
1457.00	390.09
1458.00	472.79
1459.00	484.49
1460.00	496.97
1461.00	429.10
1462.00	423.64
1463.00	426.76
1464.00	425.98
1465.00	468.11
1466.00	450.16
1467.00	433.78
1468.00	393.21
1469.00	396.33
1470.00	425.98
1471.00	436.12
1472.00	431.44
1473.00	421.30
1474.00	415.84
1475.00	397.89
1476.00	376.83
1477.00	388.53
1478.00	387.75
1479.00	376.83
1480.00	362.78
1481.00	385.41
1482.00	408.03
1483.00	418.18
1484.00	421.30
1485.00	421.30
1486.00	422.86
1487.00	415.84
1488.00	416.62
1489.00	379.17
1490.00	351.08
1491.00	342.50
1492.00	384.63
1493.00	394.77
1494.00	397.89
1495.00	380.73
1496.00	402.57
1497.00	400.23
1498.00	395.55
1499.00	368.24
1500.00	372.93
1501.00	381.51
1502.00	404.13
1503.00	376.83
1504.00	386.19
1505.00	382.29
1506.00	402.57
1507.00	379.17
1508.00	362.78
1509.00	351.08
1510.00	368.24
1511.00	409.59
1512.00	422.86
1513.00	454.06
1514.00	445.48
1515.00	445.48
1516.00	389.31
1517.00	396.33
1518.00	413.49
1519.00	429.10
1520.00	404.13
1521.00	373.71
1522.00	393.21
1523.00	414.27
1524.00	416.62
1525.00	424.42
1526.00	404.13
1527.00	463.43
1528.00	443.92
1529.00	450.94
1530.00	401.01
1531.00	384.63
1532.00	358.10
1533.00	383.85
1534.00	417.40
1535.00	429.10
1536.00	419.74
1537.00	397.89
1538.00	405.69
1539.00	375.27
1540.00	367.46
1541.00	390.09
1542.00	433.00
1543.00	446.26
1544.00	409.59
1545.00	394.77
1546.00	398.67
1547.00	425.20
1548.00	400.23
1549.00	383.85
1550.00	380.73
1551.00	357.32
1552.00	372.15
1553.00	391.65
1554.00	456.40
1555.00	440.02
1556.00	430.66
1557.00	401.01
1558.00	407.25
1559.00	388.53
1560.00	389.31
1561.00	397.11
1562.00	415.06
1563.00	408.03
1564.00	401.79
1565.00	372.93
1566.00	408.03
1567.00	409.59
1568.00	405.69
1569.00	408.81
1570.00	417.40
1571.00	427.54
1572.00	400.23
1573.00	404.91
1574.00	399.45
1575.00	414.27
1576.00	404.91
1577.00	447.82
1578.00	451.72
1579.00	454.06
1580.00	422.08
1581.00	383.85
1582.00	364.34
1583.00	353.42
1584.00	354.20
1585.00	349.52
1586.00	335.48
1587.00	344.84
1588.00	360.44
1589.00	373.71
1590.00	401.79
1591.00	389.31
1592.00	406.47
1593.00	392.43
1594.00	383.85
1595.00	382.29
1596.00	389.31
1597.00	394.77
1598.00	391.65
1599.00	397.11
1600.00	415.06
1601.00	383.07
1602.00	379.17
1603.00	383.85
1604.00	418.96
1605.00	414.27
1606.00	421.30
1607.00	413.49
1608.00	417.40
1609.00	410.37
1610.00	436.12
1611.00	429.10
1612.00	440.80
1613.00	421.30
1614.00	415.84
1615.00	420.52
1616.00	417.40
1617.00	405.69
1618.00	397.89
1619.00	403.35
1620.00	442.36
1621.00	415.84
1622.00	420.52
1623.00	365.12
1624.00	381.51
1625.00	374.49
1626.00	403.35
1627.00	370.58
1628.00	385.41
1629.00	373.71
1630.00	401.79
1631.00	377.61
1632.00	397.11
1633.00	406.47
1634.00	381.51
1635.00	375.27
1636.00	371.36
1637.00	404.13
1638.00	420.52
1639.00	422.08
1640.00	415.84
1641.00	385.41
1642.00	344.84
1643.00	346.40
1644.00	351.08
1645.00	376.05
1646.00	386.19
1647.00	401.01
1648.00	416.62
1649.00	386.97
1650.00	379.17
1651.00	362.78
1652.00	393.21
1653.00	397.11
1654.00	411.15
1655.00	422.86
1656.00	436.12
1657.00	411.93
1658.00	385.41
1659.00	369.02
1660.00	412.71
1661.00	435.34
1662.00	447.82
1663.00	408.03
1664.00	415.06
1665.00	393.21
1666.00	426.76
1667.00	418.18
1668.00	436.90
1669.00	413.49
1670.00	401.01
1671.00	422.08
1672.00	436.90
1673.00	429.10
1674.00	409.59
1675.00	381.51
1676.00	401.79
1677.00	377.61
1678.00	370.58
1679.00	367.46
1680.00	374.49
1681.00	404.91
1682.00	392.43
1683.00	393.99
1684.00	431.44
1685.00	539.88
1686.00	767.70
1687.00	1113.31
1688.00	1543.19
1689.00	1951.23
1690.00	2123.65
1691.00	2120.53
1692.00	1905.20
1693.00	1602.49
1694.00	1211.62
1695.00	841.03
1696.00	598.40
1697.00	478.25
1698.00	440.80
1699.00	454.84
1700.00	428.32
1701.00	422.08
1702.00	409.59
1703.00	425.20
1704.00	403.35
1705.00	389.31
1706.00	398.67
1707.00	419.74
1708.00	397.11
1709.00	369.80
1710.00	382.29
1711.00	410.37
1712.00	418.96
1713.00	416.62
1714.00	386.97
1715.00	351.86
1716.00	318.31
1717.00	336.26
1718.00	389.31
1719.00	397.11
1720.00	394.77
1721.00	375.27
1722.00	385.41
1723.00	401.79
1724.00	399.45
1725.00	400.23
1726.00	386.19
1727.00	392.43
1728.00	392.43
1729.00	381.51
1730.00	393.99
1731.00	394.77
1732.00	400.23
1733.00	404.13
1734.00	393.99
1735.00	404.13
1736.00	378.39
1737.00	379.17
1738.00	382.29
1739.00	367.46
1740.00	359.66
1741.00	347.18
1742.00	365.12
1743.00	375.27
1744.00	400.23
1745.00	393.21
1746.00	402.57
1747.00	375.27
1748.00	370.58
1749.00	360.44
1750.00	362.00
1751.00	360.44
1752.00	353.42
1753.00	351.86
1754.00	377.61
1755.00	385.41
1756.00	386.97
1757.00	373.71
1758.00	378.39
1759.00	386.19
1760.00	374.49
1761.00	391.65
1762.00	404.91
1763.00	433.78
1764.00	404.13
1765.00	410.37
1766.00	396.33
1767.00	402.57
1768.00	361.22
1769.00	357.32
1770.00	358.10
1771.00	396.33
1772.00	388.53
1773.00	415.84
1774.00	403.35
1775.00	429.88
1776.00	409.59
1777.00	399.45
1778.00	382.29
1779.00	376.05
1780.00	394.77
1781.00	404.13
1782.00	411.15
1783.00	433.78
1784.00	425.98
1785.00	418.96
1786.00	377.61
1787.00	394.77
1788.00	394.77
1789.00	386.97
1790.00	373.71
1791.00	385.41
1792.00	412.71
1793.00	396.33
1794.00	381.51
1795.00	365.90
1796.00	409.59
1797.00	433.00
1798.00	426.76
1799.00	404.91
1800.00	401.01
1801.00	415.84
1802.00	424.42
1803.00	418.96
1804.00	403.35
1805.00	397.11
1806.00	404.91
1807.00	408.03
1808.00	407.25
1809.00	377.61
1810.00	369.80
1811.00	385.41
1812.00	402.57
1813.00	405.69
1814.00	376.83
1815.00	365.12
1816.00	371.36
1817.00	368.24
1818.00	379.17
1819.00	376.83
1820.00	376.83
1821.00	379.17
1822.00	386.97
1823.00	403.35
1824.00	409.59
1825.00	436.90
1826.00	411.15
1827.00	417.40
1828.00	413.49
1829.00	417.40
1830.00	395.55
1831.00	375.27
1832.00	396.33
1833.00	388.53
1834.00	393.99
1835.00	393.99
1836.00	429.88
1837.00	435.34
1838.00	420.52
1839.00	395.55
1840.00	379.17
1841.00	402.57
1842.00	430.66
1843.00	437.68
1844.00	415.06
1845.00	383.07
1846.00	377.61
1847.00	374.49
1848.00	383.07
1849.00	401.79
1850.00	425.98
1851.00	433.00
1852.00	404.13
1853.00	387.75
1854.00	346.40
1855.00	362.78
1856.00	376.83
1857.00	431.44
1858.00	422.86
1859.00	411.93
1860.00	392.43
1861.00	393.21
1862.00	399.45
1863.00	402.57
1864.00	429.88
1865.00	392.43
1866.00	377.61
1867.00	341.72
1868.00	378.39
1869.00	372.15
1870.00	382.29
1871.00	383.85
1872.00	408.81
1873.00	388.53
1874.00	358.10
1875.00	334.70
1876.00	343.28
1877.00	373.71
1878.00	393.99
1879.00	415.06
1880.00	421.30
1881.00	445.48
1882.00	420.52
1883.00	399.45
1884.00	373.71
1885.00	408.81
1886.00	438.46
1887.00	422.08
1888.00	406.47
1889.00	370.58
1890.00	380.73
1891.00	356.54
1892.00	362.78
1893.00	364.34
1894.00	380.73
1895.00	399.45
1896.00	409.59
1897.00	397.11
1898.00	377.61
1899.00	383.85
1900.00	414.27
1901.00	424.42
1902.00	398.67
1903.00	411.93
1904.00	421.30
1905.00	410.37
1906.00	377.61
1907.00	362.00
1908.00	389.31
1909.00	411.15
1910.00	390.87
1911.00	380.73
1912.00	362.78
1913.00	375.27
1914.00	390.87
1915.00	380.73
1916.00	381.51
1917.00	406.47
1918.00	442.36
1919.00	441.58
1920.00	405.69
1921.00	401.79
1922.00	415.84
1923.00	433.00
1924.00	397.89
1925.00	365.12
1926.00	344.84
1927.00	360.44
1928.00	379.17
1929.00	379.95
1930.00	404.91
1931.00	401.79
1932.00	418.18
1933.00	398.67
1934.00	383.85
1935.00	379.17
1936.00	359.66
1937.00	390.09
1938.00	358.88
1939.00	386.19
1940.00	382.29
1941.00	403.35
1942.00	383.07
1943.00	378.39
1944.00	362.78
1945.00	365.90
1946.00	386.97
1947.00	393.99
1948.00	406.47
1949.00	382.29
1950.00	413.49
1951.00	412.71
1952.00	397.89
1953.00	364.34
1954.00	354.98
1955.00	369.02
1956.00	369.80
1957.00	364.34
1958.00	360.44
1959.00	365.90
1960.00	379.95
1961.00	386.97
1962.00	415.06
1963.00	394.77
1964.00	408.03
1965.00	372.93
1966.00	412.71
1967.00	403.35
1968.00	422.86
1969.00	408.03
1970.00	415.84
1971.00	379.17
1972.00	365.90
1973.00	368.24
1974.00	411.93
1975.00	415.06
1976.00	400.23
1977.00	389.31
1978.00	373.71
1979.00	373.71
1980.00	366.68
1981.00	376.83
1982.00	392.43
1983.00	399.45
1984.00	421.30
1985.00	402.57
1986.00	397.89
1987.00	365.12
1988.00	364.34
1989.00	347.96
1990.00	367.46
1991.00	375.27
1992.00	401.01
1993.00	408.03
1994.00	432.22
1995.00	404.13
1996.00	392.43
1997.00	359.66
1998.00	396.33
1999.00	380.73
2000.00	387.75
2001.00	375.27
2002.00	401.79
2003.00	404.13
2004.00	415.84
2005.00	408.81
2006.00	415.84
2007.00	396.33
2008.00	407.25
2009.00	396.33
2010.00	397.89
2011.00	387.75
2012.00	371.36
2013.00	386.97
2014.00	378.39
2015.00	416.62
2016.00	417.40
2017.00	396.33
2018.00	361.22
2019.00	351.86
2020.00	387.75
2021.00	418.18
2022.00	430.66
2023.00	412.71
2024.00	390.09
2025.00	340.16
2026.00	355.76
2027.00	366.68
2028.00	403.35
2029.00	394.77
2030.00	414.27
2031.00	406.47
2032.00	405.69
2033.00	397.11
2034.00	404.91
2035.00	408.03
2036.00	416.62
2037.00	401.79
2038.00	418.18
2039.00	388.53
2040.00	397.11
2041.00	386.19
2042.00	383.07
2043.00	380.73
2044.00	367.46
2045.00	358.88
2046.00	338.60
2047.00	313.63
>>>>>End Processed Spectral Data<<<<<
