SpectraSuite Data File
++++++++++++++++++++++++++++++++++++
Date: Thu Nov 16 14:27:27 EST 2017
User: cheriyan
Dark Spectrum Present: No
Reference Spectrum Present: No
Number of Sampled Component Spectra: 1
Spectrometers: USB2+H05261
Integration Time (usec): 100000 (USB2+H05261)
Spectra Averaged: 1 (USB2+H05261)
Boxcar Smoothing: 1 (USB2+H05261)
Correct for Electrical Dark: No (USB2+H05261)
Strobe/Lamp Enabled: No (USB2+H05261)
Correct for Detector Non-linearity: No (USB2+H05261)
Correct for Stray Light: No (USB2+H05261)
Number of Pixels in Processed Spectrum: 2048
>>>>>Begin Processed Spectral Data<<<<<
0.00	278.52
1.00	278.52
2.00	271.50
3.00	262.14
4.00	259.80
5.00	232.49
6.00	218.45
7.00	208.31
8.00	193.48
9.00	190.36
10.00	185.68
11.00	224.69
12.00	229.37
13.00	212.21
14.00	203.63
15.00	202.07
16.00	209.87
17.00	212.21
18.00	216.11
19.00	240.30
20.00	241.86
21.00	245.76
22.00	248.10
23.00	276.18
24.00	287.89
25.00	302.71
26.00	316.75
27.00	377.61
28.00	401.79
29.00	391.65
30.00	369.02
31.00	338.60
32.00	348.74
33.00	321.43
34.00	348.74
35.00	349.52
36.00	352.64
37.00	345.62
38.00	347.18
39.00	357.32
40.00	347.96
41.00	365.90
42.00	406.47
43.00	433.78
44.00	429.10
45.00	408.81
46.00	404.91
47.00	398.67
48.00	400.23
49.00	383.07
50.00	405.69
51.00	401.79
52.00	431.44
53.00	418.18
54.00	424.42
55.00	415.84
56.00	410.37
57.00	403.35
58.00	372.93
59.00	373.71
60.00	368.24
61.00	374.49
62.00	368.24
63.00	364.34
64.00	369.80
65.00	372.93
66.00	381.51
67.00	390.09
68.00	390.09
69.00	399.45
70.00	404.13
71.00	417.40
72.00	401.79
73.00	411.93
74.00	390.87
75.00	410.37
76.00	408.03
77.00	401.01
78.00	379.17
79.00	351.08
80.00	371.36
81.00	369.80
82.00	359.66
83.00	351.86
84.00	354.20
85.00	391.65
86.00	390.87
87.00	383.85
88.00	386.97
89.00	393.21
90.00	422.08
91.00	389.31
92.00	386.97
93.00	378.39
94.00	395.55
95.00	395.55
96.00	384.63
97.00	407.25
98.00	402.57
99.00	421.30
100.00	386.97
101.00	386.19
102.00	382.29
103.00	408.81
104.00	425.98
105.00	415.06
106.00	398.67
107.00	389.31
108.00	381.51
109.00	386.97
110.00	392.43
111.00	393.21
112.00	407.25
113.00	401.79
114.00	422.86
115.00	410.37
116.00	417.40
117.00	397.89
118.00	395.55
119.00	393.21
120.00	379.95
121.00	378.39
122.00	382.29
123.00	407.25
124.00	418.96
125.00	396.33
126.00	393.99
127.00	382.29
128.00	379.17
129.00	376.83
130.00	376.05
131.00	393.99
132.00	397.89
133.00	409.59
134.00	374.49
135.00	383.85
136.00	370.58
137.00	415.06
138.00	390.09
139.00	386.97
140.00	358.88
141.00	365.90
142.00	397.11
143.00	401.01
144.00	415.06
145.00	398.67
146.00	398.67
147.00	380.73
148.00	381.51
149.00	391.65
150.00	397.89
151.00	387.75
152.00	387.75
153.00	397.89
154.00	429.10
155.00	430.66
156.00	405.69
157.00	368.24
158.00	340.16
159.00	382.29
160.00	401.01
161.00	417.40
162.00	408.81
163.00	403.35
164.00	415.84
165.00	403.35
166.00	400.23
167.00	393.99
168.00	409.59
169.00	412.71
170.00	422.86
171.00	394.77
172.00	380.73
173.00	384.63
174.00	397.89
175.00	387.75
176.00	392.43
177.00	381.51
178.00	397.89
179.00	395.55
180.00	402.57
181.00	404.13
182.00	405.69
183.00	405.69
184.00	399.45
185.00	387.75
186.00	401.01
187.00	411.93
188.00	394.77
189.00	408.03
190.00	379.95
191.00	378.39
192.00	351.86
193.00	366.68
194.00	379.17
195.00	382.29
196.00	390.87
197.00	397.11
198.00	404.13
199.00	426.76
200.00	433.00
201.00	422.86
202.00	395.55
203.00	381.51
204.00	391.65
205.00	401.79
206.00	411.15
207.00	434.56
208.00	428.32
209.00	427.54
210.00	408.03
211.00	428.32
212.00	408.03
213.00	402.57
214.00	398.67
215.00	419.74
216.00	400.23
217.00	403.35
218.00	405.69
219.00	373.71
220.00	363.56
221.00	364.34
222.00	415.84
223.00	399.45
224.00	374.49
225.00	363.56
226.00	374.49
227.00	376.05
228.00	380.73
229.00	376.83
230.00	393.21
231.00	372.93
232.00	372.93
233.00	379.95
234.00	378.39
235.00	393.21
236.00	393.99
237.00	425.98
238.00	404.13
239.00	397.89
240.00	379.95
241.00	380.73
242.00	396.33
243.00	411.15
244.00	438.46
245.00	421.30
246.00	412.71
247.00	408.03
248.00	415.84
249.00	416.62
250.00	402.57
251.00	401.01
252.00	388.53
253.00	379.95
254.00	402.57
255.00	410.37
256.00	433.00
257.00	419.74
258.00	457.18
259.00	428.32
260.00	427.54
261.00	400.23
262.00	411.15
263.00	402.57
264.00	415.84
265.00	421.30
266.00	435.34
267.00	441.58
268.00	424.42
269.00	408.81
270.00	387.75
271.00	412.71
272.00	408.03
273.00	410.37
274.00	431.44
275.00	432.22
276.00	422.86
277.00	379.95
278.00	389.31
279.00	386.19
280.00	391.65
281.00	358.10
282.00	340.94
283.00	341.72
284.00	361.22
285.00	362.78
286.00	382.29
287.00	390.87
288.00	425.98
289.00	373.71
290.00	338.60
291.00	326.11
292.00	355.76
293.00	408.03
294.00	395.55
295.00	401.79
296.00	377.61
297.00	379.17
298.00	395.55
299.00	391.65
300.00	399.45
301.00	376.05
302.00	389.31
303.00	382.29
304.00	359.66
305.00	353.42
306.00	369.80
307.00	405.69
308.00	422.86
309.00	418.18
310.00	404.13
311.00	398.67
312.00	371.36
313.00	376.83
314.00	343.28
315.00	362.00
316.00	345.62
317.00	363.56
318.00	351.08
319.00	393.21
320.00	393.99
321.00	419.74
322.00	389.31
323.00	377.61
324.00	369.80
325.00	376.83
326.00	397.89
327.00	392.43
328.00	389.31
329.00	377.61
330.00	383.07
331.00	378.39
332.00	372.93
333.00	383.85
334.00	376.83
335.00	400.23
336.00	377.61
337.00	415.84
338.00	408.81
339.00	431.44
340.00	406.47
341.00	398.67
342.00	396.33
343.00	400.23
344.00	403.35
345.00	382.29
346.00	371.36
347.00	376.83
348.00	383.07
349.00	400.23
350.00	380.73
351.00	381.51
352.00	380.73
353.00	386.97
354.00	410.37
355.00	397.11
356.00	418.18
357.00	411.15
358.00	408.03
359.00	404.91
360.00	397.11
361.00	422.86
362.00	410.37
363.00	403.35
364.00	380.73
365.00	376.83
366.00	396.33
367.00	440.80
368.00	454.84
369.00	451.72
370.00	421.30
371.00	404.91
372.00	376.83
373.00	367.46
374.00	396.33
375.00	417.40
376.00	422.86
377.00	396.33
378.00	368.24
379.00	370.58
380.00	385.41
381.00	401.79
382.00	410.37
383.00	406.47
384.00	401.01
385.00	382.29
386.00	367.46
387.00	389.31
388.00	391.65
389.00	415.84
390.00	408.03
391.00	425.98
392.00	409.59
393.00	385.41
394.00	386.19
395.00	398.67
396.00	421.30
397.00	408.81
398.00	395.55
399.00	387.75
400.00	380.73
401.00	390.09
402.00	374.49
403.00	399.45
404.00	402.57
405.00	438.46
406.00	420.52
407.00	403.35
408.00	376.83
409.00	393.21
410.00	408.81
411.00	422.08
412.00	433.78
413.00	415.84
414.00	436.90
415.00	397.89
416.00	414.27
417.00	391.65
418.00	406.47
419.00	383.85
420.00	379.17
421.00	375.27
422.00	397.11
423.00	408.03
424.00	420.52
425.00	412.71
426.00	445.48
427.00	432.22
428.00	440.02
429.00	415.06
430.00	420.52
431.00	391.65
432.00	366.68
433.00	376.83
434.00	410.37
435.00	428.32
436.00	376.83
437.00	376.05
438.00	357.32
439.00	376.83
440.00	362.00
441.00	391.65
442.00	439.24
443.00	455.62
444.00	451.72
445.00	425.20
446.00	413.49
447.00	394.77
448.00	374.49
449.00	377.61
450.00	382.29
451.00	417.40
452.00	404.91
453.00	422.08
454.00	398.67
455.00	409.59
456.00	395.55
457.00	383.07
458.00	395.55
459.00	395.55
460.00	411.93
461.00	378.39
462.00	383.85
463.00	385.41
464.00	422.08
465.00	443.14
466.00	440.02
467.00	429.88
468.00	406.47
469.00	418.18
470.00	425.98
471.00	407.25
472.00	395.55
473.00	390.09
474.00	428.32
475.00	443.92
476.00	440.02
477.00	423.64
478.00	439.24
479.00	438.46
480.00	452.50
481.00	413.49
482.00	393.21
483.00	366.68
484.00	377.61
485.00	396.33
486.00	405.69
487.00	391.65
488.00	414.27
489.00	410.37
490.00	416.62
491.00	404.13
492.00	403.35
493.00	408.03
494.00	396.33
495.00	379.95
496.00	358.88
497.00	360.44
498.00	370.58
499.00	394.77
500.00	394.77
501.00	429.88
502.00	421.30
503.00	426.76
504.00	401.01
505.00	425.20
506.00	436.90
507.00	450.94
508.00	420.52
509.00	404.91
510.00	410.37
511.00	422.08
512.00	447.04
513.00	437.68
514.00	429.10
515.00	393.99
516.00	378.39
517.00	404.91
518.00	428.32
519.00	432.22
520.00	422.86
521.00	408.03
522.00	405.69
523.00	401.79
524.00	404.91
525.00	406.47
526.00	387.75
527.00	400.23
528.00	425.20
529.00	433.00
530.00	422.86
531.00	402.57
532.00	418.18
533.00	422.86
534.00	386.97
535.00	363.56
536.00	340.16
537.00	382.29
538.00	383.07
539.00	408.03
540.00	395.55
541.00	414.27
542.00	403.35
543.00	433.78
544.00	428.32
545.00	408.03
546.00	359.66
547.00	366.68
548.00	391.65
549.00	411.15
550.00	392.43
551.00	399.45
552.00	401.79
553.00	414.27
554.00	414.27
555.00	441.58
556.00	472.79
557.00	478.25
558.00	441.58
559.00	399.45
560.00	366.68
561.00	382.29
562.00	387.75
563.00	401.79
564.00	402.57
565.00	409.59
566.00	406.47
567.00	406.47
568.00	415.84
569.00	404.13
570.00	391.65
571.00	395.55
572.00	404.13
573.00	386.19
574.00	371.36
575.00	365.12
576.00	396.33
577.00	389.31
578.00	391.65
579.00	390.09
580.00	401.01
581.00	402.57
582.00	390.09
583.00	383.85
584.00	408.03
585.00	436.90
586.00	440.02
587.00	437.68
588.00	400.23
589.00	404.91
590.00	388.53
591.00	423.64
592.00	421.30
593.00	443.14
594.00	432.22
595.00	436.90
596.00	424.42
597.00	411.15
598.00	408.81
599.00	422.08
600.00	420.52
601.00	407.25
602.00	387.75
603.00	406.47
604.00	395.55
605.00	386.19
606.00	379.17
607.00	395.55
608.00	391.65
609.00	377.61
610.00	388.53
611.00	397.11
612.00	418.18
613.00	433.00
614.00	434.56
615.00	445.48
616.00	403.35
617.00	412.71
618.00	376.05
619.00	394.77
620.00	367.46
621.00	380.73
622.00	382.29
623.00	395.55
624.00	381.51
625.00	379.95
626.00	384.63
627.00	377.61
628.00	379.95
629.00	414.27
630.00	454.84
631.00	453.28
632.00	410.37
633.00	413.49
634.00	478.25
635.00	557.83
636.00	625.70
637.00	654.57
638.00	656.13
639.00	635.07
640.00	591.38
641.00	553.93
642.00	479.81
643.00	416.62
644.00	396.33
645.00	388.53
646.00	389.31
647.00	383.85
648.00	403.35
649.00	392.43
650.00	395.55
651.00	387.75
652.00	418.96
653.00	407.25
654.00	442.36
655.00	436.12
656.00	441.58
657.00	401.79
658.00	404.13
659.00	405.69
660.00	410.37
661.00	398.67
662.00	388.53
663.00	395.55
664.00	385.41
665.00	395.55
666.00	389.31
667.00	411.15
668.00	415.84
669.00	445.48
670.00	441.58
671.00	428.32
672.00	410.37
673.00	433.00
674.00	436.90
675.00	429.88
676.00	407.25
677.00	433.78
678.00	455.62
679.00	476.69
680.00	455.62
681.00	432.22
682.00	399.45
683.00	386.19
684.00	383.85
685.00	399.45
686.00	373.71
687.00	381.51
688.00	371.36
689.00	404.13
690.00	390.87
691.00	391.65
692.00	390.87
693.00	375.27
694.00	386.19
695.00	381.51
696.00	388.53
697.00	379.17
698.00	378.39
699.00	370.58
700.00	388.53
701.00	416.62
702.00	409.59
703.00	367.46
704.00	350.30
705.00	384.63
706.00	404.91
707.00	397.11
708.00	367.46
709.00	390.09
710.00	390.09
711.00	401.79
712.00	381.51
713.00	375.27
714.00	402.57
715.00	415.06
716.00	421.30
717.00	411.15
718.00	431.44
719.00	444.70
720.00	459.53
721.00	424.42
722.00	431.44
723.00	439.24
724.00	454.06
725.00	474.35
726.00	439.24
727.00	450.94
728.00	417.40
729.00	433.00
730.00	409.59
731.00	409.59
732.00	383.85
733.00	389.31
734.00	381.51
735.00	393.21
736.00	386.19
737.00	376.83
738.00	386.19
739.00	376.05
740.00	390.87
741.00	389.31
742.00	411.15
743.00	427.54
744.00	427.54
745.00	423.64
746.00	403.35
747.00	386.19
748.00	409.59
749.00	410.37
750.00	434.56
751.00	403.35
752.00	427.54
753.00	419.74
754.00	436.12
755.00	426.76
756.00	429.10
757.00	412.71
758.00	398.67
759.00	406.47
760.00	417.40
761.00	408.81
762.00	384.63
763.00	372.93
764.00	396.33
765.00	395.55
766.00	401.01
767.00	404.13
768.00	421.30
769.00	415.84
770.00	404.91
771.00	409.59
772.00	411.93
773.00	419.74
774.00	400.23
775.00	398.67
776.00	402.57
777.00	419.74
778.00	443.14
779.00	436.12
780.00	434.56
781.00	391.65
782.00	393.99
783.00	442.36
784.00	488.39
785.00	472.79
786.00	394.77
787.00	384.63
788.00	408.81
789.00	410.37
790.00	379.95
791.00	348.74
792.00	360.44
793.00	373.71
794.00	365.12
795.00	383.85
796.00	374.49
797.00	395.55
798.00	382.29
799.00	398.67
800.00	386.97
801.00	408.81
802.00	395.55
803.00	401.01
804.00	407.25
805.00	433.00
806.00	425.20
807.00	420.52
808.00	392.43
809.00	407.25
810.00	375.27
811.00	393.99
812.00	420.52
813.00	423.64
814.00	443.14
815.00	422.86
816.00	423.64
817.00	407.25
818.00	406.47
819.00	428.32
820.00	448.60
821.00	443.14
822.00	436.12
823.00	415.84
824.00	387.75
825.00	380.73
826.00	372.93
827.00	376.83
828.00	397.11
829.00	398.67
830.00	430.66
831.00	399.45
832.00	414.27
833.00	416.62
834.00	437.68
835.00	427.54
836.00	426.76
837.00	406.47
838.00	393.21
839.00	390.87
840.00	408.03
841.00	400.23
842.00	410.37
843.00	403.35
844.00	435.34
845.00	411.93
846.00	421.30
847.00	372.93
848.00	369.02
849.00	358.88
850.00	383.85
851.00	400.23
852.00	401.01
853.00	425.98
854.00	422.08
855.00	421.30
856.00	394.77
857.00	364.34
858.00	368.24
859.00	380.73
860.00	417.40
861.00	402.57
862.00	391.65
863.00	382.29
864.00	391.65
865.00	407.25
866.00	419.74
867.00	428.32
868.00	425.20
869.00	406.47
870.00	415.06
871.00	412.71
872.00	415.06
873.00	388.53
874.00	383.85
875.00	386.19
876.00	412.71
877.00	408.03
878.00	430.66
879.00	412.71
880.00	435.34
881.00	417.40
882.00	447.04
883.00	431.44
884.00	428.32
885.00	397.89
886.00	413.49
887.00	407.25
888.00	407.25
889.00	402.57
890.00	397.11
891.00	418.18
892.00	383.85
893.00	386.19
894.00	369.80
895.00	376.83
896.00	390.87
897.00	389.31
898.00	401.01
899.00	407.25
900.00	404.13
901.00	404.91
902.00	383.07
903.00	391.65
904.00	407.25
905.00	407.25
906.00	411.93
907.00	398.67
908.00	387.75
909.00	733.37
910.00	753.65
911.00	765.36
912.00	415.06
913.00	391.65
914.00	379.17
915.00	367.46
916.00	358.10
917.00	400.23
918.00	391.65
919.00	417.40
920.00	397.89
921.00	426.76
922.00	403.35
923.00	382.29
924.00	388.53
925.00	412.71
926.00	449.38
927.00	419.74
928.00	426.76
929.00	409.59
930.00	426.76
931.00	410.37
932.00	408.03
933.00	393.21
934.00	386.97
935.00	414.27
936.00	406.47
937.00	418.18
938.00	384.63
939.00	386.19
940.00	404.13
941.00	422.86
942.00	435.34
943.00	419.74
944.00	398.67
945.00	419.74
946.00	414.27
947.00	425.98
948.00	431.44
949.00	413.49
950.00	445.48
951.00	437.68
952.00	454.84
953.00	433.78
954.00	414.27
955.00	435.34
956.00	439.24
957.00	462.65
958.00	464.99
959.00	436.12
960.00	405.69
961.00	361.22
962.00	353.42
963.00	368.24
964.00	373.71
965.00	405.69
966.00	416.62
967.00	423.64
968.00	421.30
969.00	400.23
970.00	394.77
971.00	379.17
972.00	395.55
973.00	399.45
974.00	414.27
975.00	376.05
976.00	379.17
977.00	346.40
978.00	369.80
979.00	377.61
980.00	402.57
981.00	394.77
982.00	380.73
983.00	384.63
984.00	412.71
985.00	433.78
986.00	440.02
987.00	422.08
988.00	401.79
989.00	397.89
990.00	392.43
991.00	408.03
992.00	396.33
993.00	414.27
994.00	410.37
995.00	411.15
996.00	397.11
997.00	362.78
998.00	364.34
999.00	372.93
1000.00	399.45
1001.00	405.69
1002.00	387.75
1003.00	404.91
1004.00	393.99
1005.00	397.89
1006.00	365.90
1007.00	382.29
1008.00	377.61
1009.00	416.62
1010.00	427.54
1011.00	458.75
1012.00	469.67
1013.00	450.16
1014.00	437.68
1015.00	415.84
1016.00	432.22
1017.00	410.37
1018.00	398.67
1019.00	395.55
1020.00	404.91
1021.00	396.33
1022.00	386.97
1023.00	379.17
1024.00	392.43
1025.00	401.79
1026.00	425.98
1027.00	422.08
1028.00	407.25
1029.00	383.85
1030.00	398.67
1031.00	381.51
1032.00	391.65
1033.00	373.71
1034.00	398.67
1035.00	404.91
1036.00	406.47
1037.00	388.53
1038.00	418.96
1039.00	430.66
1040.00	447.04
1041.00	411.15
1042.00	404.91
1043.00	413.49
1044.00	420.52
1045.00	475.13
1046.00	472.79
1047.00	471.23
1048.00	431.44
1049.00	430.66
1050.00	429.88
1051.00	420.52
1052.00	418.18
1053.00	438.46
1054.00	422.86
1055.00	409.59
1056.00	375.27
1057.00	372.93
1058.00	371.36
1059.00	393.99
1060.00	388.53
1061.00	392.43
1062.00	388.53
1063.00	410.37
1064.00	404.91
1065.00	406.47
1066.00	365.90
1067.00	355.76
1068.00	354.20
1069.00	369.80
1070.00	396.33
1071.00	387.75
1072.00	417.40
1073.00	411.93
1074.00	403.35
1075.00	397.11
1076.00	381.51
1077.00	380.73
1078.00	379.17
1079.00	398.67
1080.00	403.35
1081.00	386.97
1082.00	377.61
1083.00	378.39
1084.00	401.01
1085.00	422.08
1086.00	451.72
1087.00	450.16
1088.00	423.64
1089.00	398.67
1090.00	387.75
1091.00	398.67
1092.00	398.67
1093.00	394.77
1094.00	408.81
1095.00	415.06
1096.00	418.18
1097.00	399.45
1098.00	390.09
1099.00	391.65
1100.00	399.45
1101.00	386.97
1102.00	397.11
1103.00	409.59
1104.00	411.15
1105.00	389.31
1106.00	353.42
1107.00	362.00
1108.00	369.80
1109.00	376.05
1110.00	376.83
1111.00	356.54
1112.00	357.32
1113.00	350.30
1114.00	365.90
1115.00	383.85
1116.00	399.45
1117.00	410.37
1118.00	396.33
1119.00	387.75
1120.00	404.13
1121.00	413.49
1122.00	439.24
1123.00	437.68
1124.00	435.34
1125.00	432.22
1126.00	417.40
1127.00	410.37
1128.00	380.73
1129.00	365.12
1130.00	384.63
1131.00	411.93
1132.00	427.54
1133.00	396.33
1134.00	393.99
1135.00	402.57
1136.00	425.20
1137.00	435.34
1138.00	433.78
1139.00	411.15
1140.00	384.63
1141.00	393.21
1142.00	408.03
1143.00	406.47
1144.00	389.31
1145.00	397.11
1146.00	426.76
1147.00	432.22
1148.00	442.36
1149.00	423.64
1150.00	437.68
1151.00	433.78
1152.00	436.90
1153.00	415.84
1154.00	400.23
1155.00	401.01
1156.00	411.93
1157.00	421.30
1158.00	415.84
1159.00	404.13
1160.00	404.91
1161.00	409.59
1162.00	422.86
1163.00	423.64
1164.00	398.67
1165.00	401.79
1166.00	399.45
1167.00	423.64
1168.00	443.14
1169.00	425.98
1170.00	436.90
1171.00	417.40
1172.00	448.60
1173.00	439.24
1174.00	425.98
1175.00	416.62
1176.00	446.26
1177.00	467.33
1178.00	459.53
1179.00	440.80
1180.00	433.00
1181.00	432.22
1182.00	445.48
1183.00	447.04
1184.00	457.96
1185.00	446.26
1186.00	429.88
1187.00	416.62
1188.00	379.17
1189.00	404.13
1190.00	389.31
1191.00	410.37
1192.00	386.19
1193.00	424.42
1194.00	444.70
1195.00	459.53
1196.00	434.56
1197.00	388.53
1198.00	370.58
1199.00	388.53
1200.00	434.56
1201.00	457.18
1202.00	440.80
1203.00	442.36
1204.00	433.00
1205.00	425.20
1206.00	383.07
1207.00	368.24
1208.00	396.33
1209.00	437.68
1210.00	460.31
1211.00	449.38
1212.00	428.32
1213.00	412.71
1214.00	415.84
1215.00	392.43
1216.00	411.93
1217.00	416.62
1218.00	440.80
1219.00	424.42
1220.00	405.69
1221.00	389.31
1222.00	400.23
1223.00	386.19
1224.00	398.67
1225.00	379.17
1226.00	397.89
1227.00	422.08
1228.00	461.87
1229.00	451.72
1230.00	421.30
1231.00	399.45
1232.00	426.76
1233.00	423.64
1234.00	402.57
1235.00	391.65
1236.00	404.91
1237.00	419.74
1238.00	407.25
1239.00	416.62
1240.00	417.40
1241.00	424.42
1242.00	445.48
1243.00	448.60
1244.00	458.75
1245.00	438.46
1246.00	440.80
1247.00	423.64
1248.00	391.65
1249.00	383.85
1250.00	402.57
1251.00	422.86
1252.00	429.10
1253.00	427.54
1254.00	431.44
1255.00	407.25
1256.00	383.07
1257.00	370.58
1258.00	402.57
1259.00	417.40
1260.00	392.43
1261.00	390.09
1262.00	415.84
1263.00	460.31
1264.00	441.58
1265.00	416.62
1266.00	399.45
1267.00	415.06
1268.00	407.25
1269.00	419.74
1270.00	389.31
1271.00	417.40
1272.00	408.81
1273.00	447.04
1274.00	428.32
1275.00	445.48
1276.00	430.66
1277.00	427.54
1278.00	429.88
1279.00	415.06
1280.00	426.76
1281.00	413.49
1282.00	423.64
1283.00	408.81
1284.00	393.99
1285.00	393.99
1286.00	408.03
1287.00	410.37
1288.00	416.62
1289.00	426.76
1290.00	436.90
1291.00	416.62
1292.00	390.87
1293.00	389.31
1294.00	436.90
1295.00	443.14
1296.00	459.53
1297.00	426.76
1298.00	422.86
1299.00	419.74
1300.00	415.06
1301.00	407.25
1302.00	409.59
1303.00	413.49
1304.00	418.18
1305.00	425.20
1306.00	445.48
1307.00	457.96
1308.00	437.68
1309.00	415.06
1310.00	408.03
1311.00	403.35
1312.00	397.11
1313.00	415.06
1314.00	396.33
1315.00	404.91
1316.00	378.39
1317.00	389.31
1318.00	408.03
1319.00	416.62
1320.00	444.70
1321.00	422.08
1322.00	418.96
1323.00	403.35
1324.00	404.91
1325.00	425.98
1326.00	417.40
1327.00	414.27
1328.00	409.59
1329.00	441.58
1330.00	457.96
1331.00	466.55
1332.00	472.01
1333.00	459.53
1334.00	469.67
1335.00	461.87
1336.00	475.91
1337.00	468.11
1338.00	453.28
1339.00	448.60
1340.00	401.01
1341.00	400.23
1342.00	402.57
1343.00	435.34
1344.00	440.80
1345.00	448.60
1346.00	440.02
1347.00	420.52
1348.00	390.09
1349.00	375.27
1350.00	358.88
1351.00	381.51
1352.00	406.47
1353.00	424.42
1354.00	418.18
1355.00	409.59
1356.00	404.91
1357.00	387.75
1358.00	383.07
1359.00	383.07
1360.00	383.07
1361.00	367.46
1362.00	383.85
1363.00	404.13
1364.00	408.81
1365.00	403.35
1366.00	387.75
1367.00	405.69
1368.00	418.18
1369.00	438.46
1370.00	464.99
1371.00	463.43
1372.00	446.26
1373.00	433.78
1374.00	430.66
1375.00	432.22
1376.00	432.22
1377.00	426.76
1378.00	439.24
1379.00	429.10
1380.00	411.15
1381.00	392.43
1382.00	380.73
1383.00	382.29
1384.00	401.79
1385.00	415.84
1386.00	429.88
1387.00	397.11
1388.00	362.78
1389.00	365.90
1390.00	402.57
1391.00	423.64
1392.00	426.76
1393.00	417.40
1394.00	418.18
1395.00	427.54
1396.00	432.22
1397.00	429.88
1398.00	390.09
1399.00	375.27
1400.00	372.93
1401.00	398.67
1402.00	403.35
1403.00	419.74
1404.00	399.45
1405.00	392.43
1406.00	385.41
1407.00	416.62
1408.00	421.30
1409.00	432.22
1410.00	425.98
1411.00	433.00
1412.00	429.88
1413.00	422.86
1414.00	425.98
1415.00	423.64
1416.00	437.68
1417.00	409.59
1418.00	407.25
1419.00	386.97
1420.00	410.37
1421.00	414.27
1422.00	429.10
1423.00	422.86
1424.00	399.45
1425.00	405.69
1426.00	418.18
1427.00	423.64
1428.00	394.77
1429.00	386.19
1430.00	405.69
1431.00	403.35
1432.00	426.76
1433.00	415.06
1434.00	440.80
1435.00	423.64
1436.00	433.78
1437.00	401.79
1438.00	379.17
1439.00	344.84
1440.00	355.76
1441.00	382.29
1442.00	425.98
1443.00	426.76
1444.00	436.12
1445.00	417.40
1446.00	412.71
1447.00	408.03
1448.00	429.10
1449.00	444.70
1450.00	436.12
1451.00	433.78
1452.00	463.43
1453.00	474.35
1454.00	460.31
1455.00	411.15
1456.00	393.99
1457.00	387.75
1458.00	440.02
1459.00	451.72
1460.00	481.37
1461.00	452.50
1462.00	439.24
1463.00	420.52
1464.00	426.76
1465.00	433.78
1466.00	408.81
1467.00	406.47
1468.00	405.69
1469.00	418.96
1470.00	403.35
1471.00	397.11
1472.00	410.37
1473.00	404.13
1474.00	401.79
1475.00	365.90
1476.00	371.36
1477.00	361.22
1478.00	397.11
1479.00	389.31
1480.00	368.24
1481.00	348.74
1482.00	359.66
1483.00	383.07
1484.00	404.13
1485.00	409.59
1486.00	390.09
1487.00	376.83
1488.00	368.24
1489.00	407.25
1490.00	401.79
1491.00	424.42
1492.00	400.23
1493.00	407.25
1494.00	397.89
1495.00	425.20
1496.00	430.66
1497.00	414.27
1498.00	413.49
1499.00	405.69
1500.00	424.42
1501.00	421.30
1502.00	418.18
1503.00	390.09
1504.00	391.65
1505.00	393.99
1506.00	388.53
1507.00	381.51
1508.00	394.77
1509.00	389.31
1510.00	366.68
1511.00	356.54
1512.00	404.91
1513.00	421.30
1514.00	415.84
1515.00	387.75
1516.00	382.29
1517.00	379.95
1518.00	379.17
1519.00	390.09
1520.00	408.81
1521.00	443.14
1522.00	429.88
1523.00	421.30
1524.00	410.37
1525.00	404.13
1526.00	376.83
1527.00	354.98
1528.00	354.20
1529.00	380.73
1530.00	392.43
1531.00	432.22
1532.00	417.40
1533.00	405.69
1534.00	395.55
1535.00	416.62
1536.00	429.10
1537.00	431.44
1538.00	394.77
1539.00	380.73
1540.00	345.62
1541.00	365.12
1542.00	391.65
1543.00	401.79
1544.00	418.18
1545.00	400.23
1546.00	403.35
1547.00	398.67
1548.00	409.59
1549.00	403.35
1550.00	390.87
1551.00	397.11
1552.00	419.74
1553.00	451.72
1554.00	429.88
1555.00	416.62
1556.00	403.35
1557.00	405.69
1558.00	422.08
1559.00	415.06
1560.00	408.03
1561.00	402.57
1562.00	397.11
1563.00	402.57
1564.00	390.87
1565.00	390.87
1566.00	363.56
1567.00	382.29
1568.00	389.31
1569.00	421.30
1570.00	425.98
1571.00	420.52
1572.00	425.98
1573.00	387.75
1574.00	387.75
1575.00	382.29
1576.00	385.41
1577.00	398.67
1578.00	394.77
1579.00	425.98
1580.00	437.68
1581.00	458.74
1582.00	431.44
1583.00	411.15
1584.00	371.36
1585.00	373.71
1586.00	345.62
1587.00	337.04
1588.00	345.62
1589.00	366.68
1590.00	397.11
1591.00	395.55
1592.00	404.13
1593.00	414.27
1594.00	415.84
1595.00	403.35
1596.00	389.31
1597.00	397.89
1598.00	386.97
1599.00	390.87
1600.00	376.05
1601.00	393.21
1602.00	405.69
1603.00	401.79
1604.00	395.55
1605.00	398.67
1606.00	421.30
1607.00	408.03
1608.00	383.07
1609.00	354.98
1610.00	360.44
1611.00	381.51
1612.00	379.95
1613.00	380.73
1614.00	363.56
1615.00	378.39
1616.00	384.63
1617.00	390.09
1618.00	393.99
1619.00	425.98
1620.00	429.88
1621.00	414.27
1622.00	398.67
1623.00	393.21
1624.00	422.86
1625.00	419.74
1626.00	434.56
1627.00	422.08
1628.00	428.32
1629.00	416.62
1630.00	402.57
1631.00	385.41
1632.00	379.95
1633.00	381.51
1634.00	372.93
1635.00	372.15
1636.00	387.75
1637.00	386.97
1638.00	401.79
1639.00	397.11
1640.00	396.33
1641.00	375.27
1642.00	393.21
1643.00	404.91
1644.00	385.41
1645.00	376.05
1646.00	375.27
1647.00	411.15
1648.00	398.67
1649.00	386.19
1650.00	373.71
1651.00	369.80
1652.00	408.81
1653.00	404.91
1654.00	423.64
1655.00	401.01
1656.00	406.47
1657.00	404.91
1658.00	397.11
1659.00	398.67
1660.00	389.31
1661.00	404.91
1662.00	407.25
1663.00	400.23
1664.00	423.64
1665.00	410.37
1666.00	418.18
1667.00	383.85
1668.00	411.93
1669.00	401.79
1670.00	398.67
1671.00	397.89
1672.00	420.52
1673.00	421.30
1674.00	401.79
1675.00	364.34
1676.00	365.90
1677.00	373.71
1678.00	385.41
1679.00	393.21
1680.00	392.43
1681.00	404.13
1682.00	389.31
1683.00	388.53
1684.00	403.35
1685.00	490.73
1686.00	664.71
1687.00	905.79
1688.00	1224.88
1689.00	1495.60
1690.00	1667.24
1691.00	1657.88
1692.00	1512.77
1693.00	1263.89
1694.00	983.81
1695.00	730.25
1696.00	589.03
1697.00	508.68
1698.00	464.99
1699.00	434.56
1700.00	379.95
1701.00	365.12
1702.00	339.38
1703.00	379.17
1704.00	394.77
1705.00	414.27
1706.00	410.37
1707.00	401.79
1708.00	392.43
1709.00	389.31
1710.00	396.33
1711.00	390.87
1712.00	397.11
1713.00	385.41
1714.00	393.21
1715.00	385.41
1716.00	399.45
1717.00	400.23
1718.00	415.06
1719.00	422.08
1720.00	433.78
1721.00	418.18
1722.00	411.93
1723.00	380.73
1724.00	382.29
1725.00	376.83
1726.00	384.63
1727.00	403.35
1728.00	401.79
1729.00	425.20
1730.00	412.71
1731.00	425.98
1732.00	444.70
1733.00	440.02
1734.00	408.81
1735.00	369.80
1736.00	345.62
1737.00	362.78
1738.00	370.58
1739.00	393.99
1740.00	399.45
1741.00	391.65
1742.00	372.15
1743.00	367.46
1744.00	391.65
1745.00	401.79
1746.00	411.15
1747.00	386.19
1748.00	396.33
1749.00	389.31
1750.00	410.37
1751.00	409.59
1752.00	415.06
1753.00	414.27
1754.00	415.06
1755.00	401.79
1756.00	409.59
1757.00	393.99
1758.00	397.89
1759.00	369.80
1760.00	365.90
1761.00	358.88
1762.00	379.17
1763.00	413.49
1764.00	422.86
1765.00	418.18
1766.00	406.47
1767.00	401.01
1768.00	400.23
1769.00	373.71
1770.00	390.09
1771.00	370.58
1772.00	382.29
1773.00	382.29
1774.00	422.08
1775.00	446.26
1776.00	433.78
1777.00	411.15
1778.00	411.15
1779.00	413.49
1780.00	399.45
1781.00	372.15
1782.00	379.17
1783.00	425.98
1784.00	441.58
1785.00	447.82
1786.00	419.74
1787.00	432.22
1788.00	418.18
1789.00	404.13
1790.00	395.55
1791.00	411.93
1792.00	454.84
1793.00	428.32
1794.00	417.40
1795.00	397.89
1796.00	418.18
1797.00	424.42
1798.00	411.93
1799.00	422.08
1800.00	408.03
1801.00	402.57
1802.00	398.67
1803.00	407.25
1804.00	408.81
1805.00	407.25
1806.00	391.65
1807.00	390.87
1808.00	365.90
1809.00	383.07
1810.00	378.39
1811.00	369.80
1812.00	398.67
1813.00	408.03
1814.00	456.40
1815.00	419.74
1816.00	405.69
1817.00	364.34
1818.00	377.61
1819.00	390.09
1820.00	396.33
1821.00	351.86
1822.00	347.96
1823.00	339.38
1824.00	387.75
1825.00	375.27
1826.00	390.09
1827.00	397.89
1828.00	418.96
1829.00	399.45
1830.00	392.43
1831.00	369.02
1832.00	415.84
1833.00	395.55
1834.00	400.23
1835.00	373.71
1836.00	367.46
1837.00	388.53
1838.00	396.33
1839.00	398.67
1840.00	403.35
1841.00	392.43
1842.00	440.02
1843.00	411.15
1844.00	443.92
1845.00	405.69
1846.00	419.74
1847.00	359.66
1848.00	365.12
1849.00	357.32
1850.00	381.51
1851.00	351.08
1852.00	381.51
1853.00	394.77
1854.00	404.13
1855.00	379.95
1856.00	379.17
1857.00	388.53
1858.00	370.58
1859.00	367.46
1860.00	368.24
1861.00	397.89
1862.00	404.13
1863.00	413.49
1864.00	400.23
1865.00	381.51
1866.00	388.53
1867.00	428.32
1868.00	440.02
1869.00	411.15
1870.00	390.87
1871.00	384.63
1872.00	408.03
1873.00	405.69
1874.00	408.03
1875.00	404.91
1876.00	388.53
1877.00	379.17
1878.00	395.55
1879.00	402.57
1880.00	406.47
1881.00	389.31
1882.00	396.33
1883.00	379.17
1884.00	379.17
1885.00	376.05
1886.00	411.15
1887.00	412.71
1888.00	400.23
1889.00	386.19
1890.00	382.29
1891.00	411.15
1892.00	405.69
1893.00	392.43
1894.00	336.26
1895.00	345.62
1896.00	351.86
1897.00	382.29
1898.00	372.15
1899.00	391.65
1900.00	378.39
1901.00	381.51
1902.00	362.78
1903.00	380.73
1904.00	367.46
1905.00	364.34
1906.00	359.66
1907.00	384.63
1908.00	411.93
1909.00	415.06
1910.00	409.59
1911.00	377.61
1912.00	362.00
1913.00	360.44
1914.00	378.39
1915.00	408.03
1916.00	385.41
1917.00	358.88
1918.00	356.54
1919.00	379.95
1920.00	394.77
1921.00	381.51
1922.00	389.31
1923.00	404.13
1924.00	415.84
1925.00	401.79
1926.00	391.65
1927.00	371.36
1928.00	349.52
1929.00	330.80
1930.00	339.38
1931.00	374.49
1932.00	378.39
1933.00	351.86
1934.00	353.42
1935.00	364.34
1936.00	391.65
1937.00	379.95
1938.00	365.90
1939.00	357.32
1940.00	365.12
1941.00	363.56
1942.00	367.46
1943.00	342.50
1944.00	372.93
1945.00	348.74
1946.00	394.77
1947.00	392.43
1948.00	393.99
1949.00	360.44
1950.00	347.18
1951.00	360.44
1952.00	358.88
1953.00	346.40
1954.00	358.88
1955.00	379.17
1956.00	397.89
1957.00	414.27
1958.00	411.15
1959.00	417.40
1960.00	425.98
1961.00	422.08
1962.00	411.15
1963.00	384.63
1964.00	405.69
1965.00	397.89
1966.00	375.27
1967.00	329.24
1968.00	337.82
1969.00	357.32
1970.00	370.58
1971.00	368.24
1972.00	371.36
1973.00	376.05
1974.00	395.55
1975.00	395.55
1976.00	398.67
1977.00	385.41
1978.00	392.43
1979.00	384.63
1980.00	376.05
1981.00	369.02
1982.00	369.02
1983.00	362.78
1984.00	382.29
1985.00	424.42
1986.00	447.04
1987.00	467.33
1988.00	425.20
1989.00	415.84
1990.00	381.51
1991.00	383.07
1992.00	366.68
1993.00	364.34
1994.00	367.46
1995.00	383.85
1996.00	371.36
1997.00	370.58
1998.00	379.17
1999.00	375.27
2000.00	380.73
2001.00	364.34
2002.00	414.27
2003.00	401.79
2004.00	379.95
2005.00	350.30
2006.00	370.58
2007.00	392.43
2008.00	379.95
2009.00	379.95
2010.00	373.71
2011.00	386.19
2012.00	365.12
2013.00	379.17
2014.00	388.53
2015.00	411.93
2016.00	378.39
2017.00	372.15
2018.00	351.08
2019.00	393.99
2020.00	364.34
2021.00	394.77
2022.00	405.69
2023.00	431.44
2024.00	428.32
2025.00	408.81
2026.00	403.35
2027.00	392.43
2028.00	401.01
2029.00	415.84
2030.00	418.96
2031.00	413.49
2032.00	402.57
2033.00	391.65
2034.00	366.68
2035.00	358.10
2036.00	347.18
2037.00	382.29
2038.00	397.89
2039.00	401.01
2040.00	386.19
2041.00	377.61
2042.00	397.11
2043.00	383.85
2044.00	371.36
2045.00	341.72
2046.00	348.74
2047.00	369.80
>>>>>End Processed Spectral Data<<<<<
