SpectraSuite Data File
++++++++++++++++++++++++++++++++++++
Date: Thu Nov 16 14:27:17 EST 2017
User: cheriyan
Dark Spectrum Present: No
Reference Spectrum Present: No
Number of Sampled Component Spectra: 1
Spectrometers: USB2+H05261
Integration Time (usec): 100000 (USB2+H05261)
Spectra Averaged: 1 (USB2+H05261)
Boxcar Smoothing: 1 (USB2+H05261)
Correct for Electrical Dark: No (USB2+H05261)
Strobe/Lamp Enabled: No (USB2+H05261)
Correct for Detector Non-linearity: No (USB2+H05261)
Correct for Stray Light: No (USB2+H05261)
Number of Pixels in Processed Spectrum: 2048
>>>>>Begin Processed Spectral Data<<<<<
0.00	241.08
1.00	241.08
2.00	227.81
3.00	210.65
4.00	223.91
5.00	229.37
6.00	261.36
7.00	246.54
8.00	237.95
9.00	211.43
10.00	205.97
11.00	195.82
12.00	221.57
13.00	211.43
14.00	235.61
15.00	222.35
16.00	223.13
17.00	201.29
18.00	205.19
19.00	237.17
20.00	294.91
21.00	314.41
22.00	322.99
23.00	307.39
24.00	305.05
25.00	311.29
26.00	330.02
27.00	347.18
28.00	365.90
29.00	365.90
30.00	338.60
31.00	325.33
32.00	316.75
33.00	341.72
34.00	358.88
35.00	391.65
36.00	413.49
37.00	393.99
38.00	377.61
39.00	363.56
40.00	366.68
41.00	374.49
42.00	372.15
43.00	380.73
44.00	395.55
45.00	407.25
46.00	396.33
47.00	368.24
48.00	356.54
49.00	360.44
50.00	377.61
51.00	393.21
52.00	408.81
53.00	401.79
54.00	394.77
55.00	397.11
56.00	392.43
57.00	376.83
58.00	378.39
59.00	397.89
60.00	400.23
61.00	396.33
62.00	403.35
63.00	422.86
64.00	431.44
65.00	423.64
66.00	422.86
67.00	422.86
68.00	413.49
69.00	422.08
70.00	400.23
71.00	420.52
72.00	407.25
73.00	393.21
74.00	358.88
75.00	328.46
76.00	324.55
77.00	316.75
78.00	341.72
79.00	392.43
80.00	446.26
81.00	433.78
82.00	395.55
83.00	332.36
84.00	351.08
85.00	346.40
86.00	386.97
87.00	385.41
88.00	410.37
89.00	385.41
90.00	397.11
91.00	405.69
92.00	412.71
93.00	391.65
94.00	382.29
95.00	372.15
96.00	375.27
97.00	368.24
98.00	386.97
99.00	391.65
100.00	393.99
101.00	372.15
102.00	393.21
103.00	383.07
104.00	393.21
105.00	381.51
106.00	397.11
107.00	404.91
108.00	399.45
109.00	406.47
110.00	386.19
111.00	370.58
112.00	376.83
113.00	404.13
114.00	419.74
115.00	382.29
116.00	365.90
117.00	371.36
118.00	386.19
119.00	395.55
120.00	390.87
121.00	405.69
122.00	415.06
123.00	405.69
124.00	400.23
125.00	403.35
126.00	411.15
127.00	400.23
128.00	376.05
129.00	382.29
130.00	382.29
131.00	404.91
132.00	359.66
133.00	350.30
134.00	342.50
135.00	363.56
136.00	383.85
137.00	362.78
138.00	372.93
139.00	374.49
140.00	396.33
141.00	410.37
142.00	402.57
143.00	393.99
144.00	372.93
145.00	382.29
146.00	398.67
147.00	421.30
148.00	432.22
149.00	434.56
150.00	404.91
151.00	378.39
152.00	379.95
153.00	399.45
154.00	408.03
155.00	393.99
156.00	397.89
157.00	393.99
158.00	376.83
159.00	362.00
160.00	363.56
161.00	390.09
162.00	415.84
163.00	433.00
164.00	438.46
165.00	407.25
166.00	400.23
167.00	396.33
168.00	413.49
169.00	420.52
170.00	391.65
171.00	385.41
172.00	386.97
173.00	408.03
174.00	427.54
175.00	399.45
176.00	393.21
177.00	348.74
178.00	355.76
179.00	362.78
180.00	397.89
181.00	393.99
182.00	380.73
183.00	392.43
184.00	401.79
185.00	408.81
186.00	379.95
187.00	360.44
188.00	347.96
189.00	338.60
190.00	330.80
191.00	326.89
192.00	356.54
193.00	388.53
194.00	393.21
195.00	384.63
196.00	377.61
197.00	406.47
198.00	390.09
199.00	376.83
200.00	356.54
201.00	397.89
202.00	406.47
203.00	410.37
204.00	388.53
205.00	403.35
206.00	401.79
207.00	417.40
208.00	406.47
209.00	422.08
210.00	396.33
211.00	413.49
212.00	384.63
213.00	395.55
214.00	391.65
215.00	422.08
216.00	431.44
217.00	429.88
218.00	409.59
219.00	401.01
220.00	383.07
221.00	387.75
222.00	366.68
223.00	360.44
224.00	352.64
225.00	352.64
226.00	390.87
227.00	387.75
228.00	404.13
229.00	355.76
230.00	376.83
231.00	372.15
232.00	410.37
233.00	403.35
234.00	412.71
235.00	404.91
236.00	396.33
237.00	385.41
238.00	366.68
239.00	376.83
240.00	390.87
241.00	412.71
242.00	415.06
243.00	393.21
244.00	379.95
245.00	361.22
246.00	345.62
247.00	351.86
248.00	337.82
249.00	372.93
250.00	375.27
251.00	390.87
252.00	397.89
253.00	405.69
254.00	418.18
255.00	394.77
256.00	393.21
257.00	362.00
258.00	362.78
259.00	370.58
260.00	408.81
261.00	413.49
262.00	391.65
263.00	386.97
264.00	395.55
265.00	395.55
266.00	387.75
267.00	385.41
268.00	390.09
269.00	410.37
270.00	404.91
271.00	398.67
272.00	391.65
273.00	390.09
274.00	404.13
275.00	403.35
276.00	409.59
277.00	399.45
278.00	394.77
279.00	419.74
280.00	429.88
281.00	424.42
282.00	400.23
283.00	394.77
284.00	394.77
285.00	403.35
286.00	387.75
287.00	387.75
288.00	376.83
289.00	383.07
290.00	378.39
291.00	366.68
292.00	408.03
293.00	416.62
294.00	422.08
295.00	395.55
296.00	417.40
297.00	418.96
298.00	364.34
299.00	353.42
300.00	347.18
301.00	352.64
302.00	330.80
303.00	345.62
304.00	361.22
305.00	397.11
306.00	376.83
307.00	423.64
308.00	410.37
309.00	440.02
310.00	400.23
311.00	381.51
312.00	345.62
313.00	353.42
314.00	344.84
315.00	368.24
316.00	397.11
317.00	420.52
318.00	398.67
319.00	384.63
320.00	386.19
321.00	399.45
322.00	384.63
323.00	373.71
324.00	396.33
325.00	404.91
326.00	418.18
327.00	414.27
328.00	414.27
329.00	404.13
330.00	375.27
331.00	372.93
332.00	362.78
333.00	382.29
334.00	380.73
335.00	381.51
336.00	412.71
337.00	402.57
338.00	409.59
339.00	372.15
340.00	389.31
341.00	389.31
342.00	398.67
343.00	383.85
344.00	386.97
345.00	392.43
346.00	396.33
347.00	379.17
348.00	370.58
349.00	388.53
350.00	383.85
351.00	381.51
352.00	404.91
353.00	440.80
354.00	480.59
355.00	432.22
356.00	402.57
357.00	361.22
358.00	367.46
359.00	404.13
360.00	438.46
361.00	455.62
362.00	426.76
363.00	398.67
364.00	401.79
365.00	396.33
366.00	382.29
367.00	359.66
368.00	384.63
369.00	419.74
370.00	433.00
371.00	422.86
372.00	405.69
373.00	396.33
374.00	377.61
375.00	383.85
376.00	402.57
377.00	431.44
378.00	407.25
379.00	405.69
380.00	404.13
381.00	392.43
382.00	399.45
383.00	371.36
384.00	404.13
385.00	386.97
386.00	412.71
387.00	429.10
388.00	429.10
389.00	430.66
390.00	397.89
391.00	417.40
392.00	422.86
393.00	427.54
394.00	419.74
395.00	411.93
396.00	408.81
397.00	397.89
398.00	385.41
399.00	404.13
400.00	408.81
401.00	412.71
402.00	379.17
403.00	381.51
404.00	389.31
405.00	416.62
406.00	398.67
407.00	402.57
408.00	398.67
409.00	433.78
410.00	425.98
411.00	425.20
412.00	395.55
413.00	404.91
414.00	401.79
415.00	406.47
416.00	375.27
417.00	387.75
418.00	401.01
419.00	416.62
420.00	408.81
421.00	399.45
422.00	402.57
423.00	394.77
424.00	402.57
425.00	414.27
426.00	430.66
427.00	399.45
428.00	374.49
429.00	364.34
430.00	393.21
431.00	392.43
432.00	386.19
433.00	389.31
434.00	405.69
435.00	416.62
436.00	404.13
437.00	391.65
438.00	368.24
439.00	361.22
440.00	372.93
441.00	411.15
442.00	422.86
443.00	448.60
444.00	412.71
445.00	407.25
446.00	378.39
447.00	395.55
448.00	393.21
449.00	396.33
450.00	382.29
451.00	385.41
452.00	390.87
453.00	390.09
454.00	407.25
455.00	390.87
456.00	436.12
457.00	413.49
458.00	408.81
459.00	390.87
460.00	392.43
461.00	433.78
462.00	424.42
463.00	429.10
464.00	399.45
465.00	401.79
466.00	390.09
467.00	389.31
468.00	374.49
469.00	379.17
470.00	383.07
471.00	382.29
472.00	402.57
473.00	403.35
474.00	411.93
475.00	408.81
476.00	392.43
477.00	361.22
478.00	343.28
479.00	386.19
480.00	427.54
481.00	433.00
482.00	406.47
483.00	386.97
484.00	390.09
485.00	371.36
486.00	391.65
487.00	405.69
488.00	406.47
489.00	380.73
490.00	352.64
491.00	372.93
492.00	408.03
493.00	431.44
494.00	425.98
495.00	397.89
496.00	361.22
497.00	341.72
498.00	322.99
499.00	349.52
500.00	384.63
501.00	409.59
502.00	383.85
503.00	363.56
504.00	356.54
505.00	383.07
506.00	405.69
507.00	420.52
508.00	439.24
509.00	439.24
510.00	450.94
511.00	439.24
512.00	416.62
513.00	412.71
514.00	420.52
515.00	418.96
516.00	428.32
517.00	415.06
518.00	414.27
519.00	401.79
520.00	422.08
521.00	436.90
522.00	436.12
523.00	397.89
524.00	372.15
525.00	352.64
526.00	377.61
527.00	420.52
528.00	425.20
529.00	428.32
530.00	389.31
531.00	404.13
532.00	390.87
533.00	400.23
534.00	405.69
535.00	417.40
536.00	423.64
537.00	433.00
538.00	441.58
539.00	464.21
540.00	444.70
541.00	421.30
542.00	400.23
543.00	399.45
544.00	410.37
545.00	398.67
546.00	386.97
547.00	367.46
548.00	356.54
549.00	348.74
550.00	362.00
551.00	372.93
552.00	376.83
553.00	379.95
554.00	399.45
555.00	411.15
556.00	409.59
557.00	406.47
558.00	381.51
559.00	389.31
560.00	356.54
561.00	366.68
562.00	351.08
563.00	356.54
564.00	361.22
565.00	374.49
566.00	402.57
567.00	409.59
568.00	413.49
569.00	401.01
570.00	399.45
571.00	385.41
572.00	397.11
573.00	397.11
574.00	408.81
575.00	400.23
576.00	390.87
577.00	391.65
578.00	382.29
579.00	405.69
580.00	398.67
581.00	397.89
582.00	386.97
583.00	382.29
584.00	386.19
585.00	390.87
586.00	370.58
587.00	390.87
588.00	379.95
589.00	419.74
590.00	390.09
591.00	400.23
592.00	401.01
593.00	417.40
594.00	407.25
595.00	373.71
596.00	369.02
597.00	385.41
598.00	405.69
599.00	419.74
600.00	408.03
601.00	408.03
602.00	409.59
603.00	402.57
604.00	386.19
605.00	354.20
606.00	369.80
607.00	393.21
608.00	411.15
609.00	395.55
610.00	383.07
611.00	377.61
612.00	390.09
613.00	402.57
614.00	400.23
615.00	407.25
616.00	418.18
617.00	427.54
618.00	424.42
619.00	390.87
620.00	380.73
621.00	372.93
622.00	401.79
623.00	394.77
624.00	391.65
625.00	369.80
626.00	374.49
627.00	371.36
628.00	401.01
629.00	435.34
630.00	459.53
631.00	448.60
632.00	456.40
633.00	457.96
634.00	482.15
635.00	543.78
636.00	670.17
637.00	719.32
638.00	735.71
639.00	673.29
640.00	659.25
641.00	610.88
642.00	555.49
643.00	468.89
644.00	418.18
645.00	397.89
646.00	394.77
647.00	388.53
648.00	374.49
649.00	386.97
650.00	370.58
651.00	390.87
652.00	413.49
653.00	442.36
654.00	468.89
655.00	449.38
656.00	448.60
657.00	422.86
658.00	429.88
659.00	436.12
660.00	429.88
661.00	420.52
662.00	428.32
663.00	429.88
664.00	431.44
665.00	404.13
666.00	400.23
667.00	406.47
668.00	422.86
669.00	421.30
670.00	409.59
671.00	383.07
672.00	388.53
673.00	418.96
674.00	450.16
675.00	474.35
676.00	473.57
677.00	464.99
678.00	448.60
679.00	440.02
680.00	450.94
681.00	433.78
682.00	408.81
683.00	382.29
684.00	391.65
685.00	417.40
686.00	418.18
687.00	432.22
688.00	403.35
689.00	411.93
690.00	373.71
691.00	397.11
692.00	383.07
693.00	392.43
694.00	388.53
695.00	400.23
696.00	411.93
697.00	412.71
698.00	413.49
699.00	387.75
700.00	387.75
701.00	390.09
702.00	429.88
703.00	440.80
704.00	443.92
705.00	436.12
706.00	422.08
707.00	404.13
708.00	401.79
709.00	390.87
710.00	396.33
711.00	396.33
712.00	388.53
713.00	392.43
714.00	385.41
715.00	412.71
716.00	419.74
717.00	420.52
718.00	475.91
719.00	475.91
720.00	484.49
721.00	429.88
722.00	450.16
723.00	452.50
724.00	441.58
725.00	424.42
726.00	423.64
727.00	435.34
728.00	417.40
729.00	396.33
730.00	384.63
731.00	388.53
732.00	403.35
733.00	393.99
734.00	392.43
735.00	386.19
736.00	412.71
737.00	422.08
738.00	418.96
739.00	376.83
740.00	383.07
741.00	379.95
742.00	404.13
743.00	437.68
744.00	443.14
745.00	461.87
746.00	436.90
747.00	433.00
748.00	389.31
749.00	348.74
750.00	355.76
751.00	392.43
752.00	403.35
753.00	393.99
754.00	391.65
755.00	389.31
756.00	420.52
757.00	425.20
758.00	434.56
759.00	421.30
760.00	425.20
761.00	457.18
762.00	429.88
763.00	409.59
764.00	383.07
765.00	422.86
766.00	433.00
767.00	424.42
768.00	385.41
769.00	369.80
770.00	381.51
771.00	398.67
772.00	418.18
773.00	422.86
774.00	433.00
775.00	429.88
776.00	403.35
777.00	404.91
778.00	408.03
779.00	432.22
780.00	408.81
781.00	404.91
782.00	393.99
783.00	479.03
784.00	464.21
785.00	494.63
786.00	391.65
787.00	407.25
788.00	359.66
789.00	376.83
790.00	376.83
791.00	400.23
792.00	420.52
793.00	391.65
794.00	387.75
795.00	404.13
796.00	412.71
797.00	408.81
798.00	371.36
799.00	370.58
800.00	347.96
801.00	374.49
802.00	399.45
803.00	440.80
804.00	415.06
805.00	411.15
806.00	390.87
807.00	389.31
808.00	385.41
809.00	427.54
810.00	448.60
811.00	443.92
812.00	426.76
813.00	404.13
814.00	421.30
815.00	414.27
816.00	416.62
817.00	401.01
818.00	359.66
819.00	359.66
820.00	353.42
821.00	395.55
822.00	435.34
823.00	419.74
824.00	401.01
825.00	352.64
826.00	398.67
827.00	397.89
828.00	430.66
829.00	401.01
830.00	412.71
831.00	400.23
832.00	403.35
833.00	419.74
834.00	418.96
835.00	405.69
836.00	388.53
837.00	376.05
838.00	384.63
839.00	366.68
840.00	386.19
841.00	411.15
842.00	422.86
843.00	417.40
844.00	397.11
845.00	402.57
846.00	413.49
847.00	417.40
848.00	407.25
849.00	422.08
850.00	408.03
851.00	401.79
852.00	369.02
853.00	387.75
854.00	386.19
855.00	406.47
856.00	407.25
857.00	408.03
858.00	398.67
859.00	376.05
860.00	393.21
861.00	418.96
862.00	441.58
863.00	445.48
864.00	441.58
865.00	435.34
866.00	427.54
867.00	396.33
868.00	384.63
869.00	409.59
870.00	433.00
871.00	436.12
872.00	398.67
873.00	385.41
874.00	408.81
875.00	421.30
876.00	445.48
877.00	422.86
878.00	442.36
879.00	406.47
880.00	406.47
881.00	386.19
882.00	384.63
883.00	413.49
884.00	409.59
885.00	420.52
886.00	415.06
887.00	433.00
888.00	439.24
889.00	434.56
890.00	414.27
891.00	398.67
892.00	380.73
893.00	396.33
894.00	401.79
895.00	408.81
896.00	408.81
897.00	405.69
898.00	392.43
899.00	385.41
900.00	381.51
901.00	387.75
902.00	362.00
903.00	344.84
904.00	330.80
905.00	336.26
906.00	362.00
907.00	371.36
908.00	405.69
909.00	752.87
910.00	791.88
911.00	781.74
912.00	424.42
913.00	397.89
914.00	397.11
915.00	399.45
916.00	396.33
917.00	418.96
918.00	438.46
919.00	447.04
920.00	409.59
921.00	418.18
922.00	433.00
923.00	443.92
924.00	416.62
925.00	390.09
926.00	386.97
927.00	397.11
928.00	392.43
929.00	399.45
930.00	391.65
931.00	383.85
932.00	365.12
933.00	379.17
934.00	394.77
935.00	425.98
936.00	424.42
937.00	429.88
938.00	432.22
939.00	448.60
940.00	451.72
941.00	436.90
942.00	429.10
943.00	408.81
944.00	414.27
945.00	412.71
946.00	422.86
947.00	418.18
948.00	415.84
949.00	410.37
950.00	403.35
951.00	410.37
952.00	418.96
953.00	415.06
954.00	401.01
955.00	385.41
956.00	404.91
957.00	433.00
958.00	454.84
959.00	457.18
960.00	440.80
961.00	422.08
962.00	419.74
963.00	418.18
964.00	435.34
965.00	418.96
966.00	407.25
967.00	404.13
968.00	411.15
969.00	391.65
970.00	393.21
971.00	373.71
972.00	373.71
973.00	366.68
974.00	347.18
975.00	361.22
976.00	366.68
977.00	382.29
978.00	372.93
979.00	374.49
980.00	395.55
981.00	381.51
982.00	372.15
983.00	383.85
984.00	379.17
985.00	386.19
986.00	376.83
987.00	411.93
988.00	421.30
989.00	406.47
990.00	420.52
991.00	404.91
992.00	425.20
993.00	397.11
994.00	391.65
995.00	378.39
996.00	410.37
997.00	407.25
998.00	405.69
999.00	390.87
1000.00	399.45
1001.00	410.37
1002.00	403.35
1003.00	400.23
1004.00	405.69
1005.00	404.91
1006.00	414.27
1007.00	421.30
1008.00	438.46
1009.00	443.92
1010.00	443.92
1011.00	436.12
1012.00	422.86
1013.00	405.69
1014.00	383.85
1015.00	378.39
1016.00	383.85
1017.00	383.07
1018.00	401.79
1019.00	412.71
1020.00	424.42
1021.00	404.13
1022.00	393.99
1023.00	383.07
1024.00	401.01
1025.00	379.17
1026.00	382.29
1027.00	388.53
1028.00	401.01
1029.00	409.59
1030.00	391.65
1031.00	411.93
1032.00	393.99
1033.00	386.19
1034.00	351.86
1035.00	356.54
1036.00	370.58
1037.00	381.51
1038.00	372.15
1039.00	374.49
1040.00	390.09
1041.00	389.31
1042.00	404.91
1043.00	393.21
1044.00	427.54
1045.00	446.26
1046.00	436.12
1047.00	407.25
1048.00	354.98
1049.00	393.21
1050.00	390.09
1051.00	409.59
1052.00	398.67
1053.00	423.64
1054.00	433.78
1055.00	425.98
1056.00	413.49
1057.00	383.85
1058.00	365.90
1059.00	373.71
1060.00	398.67
1061.00	403.35
1062.00	402.57
1063.00	407.25
1064.00	412.71
1065.00	426.76
1066.00	423.64
1067.00	415.84
1068.00	386.97
1069.00	359.66
1070.00	358.10
1071.00	360.44
1072.00	379.95
1073.00	401.79
1074.00	425.98
1075.00	415.84
1076.00	401.79
1077.00	399.45
1078.00	424.42
1079.00	423.64
1080.00	436.90
1081.00	410.37
1082.00	422.86
1083.00	402.57
1084.00	397.89
1085.00	383.85
1086.00	415.84
1087.00	429.88
1088.00	432.22
1089.00	429.10
1090.00	452.50
1091.00	457.18
1092.00	436.90
1093.00	402.57
1094.00	423.64
1095.00	411.93
1096.00	447.04
1097.00	440.80
1098.00	453.28
1099.00	425.20
1100.00	434.56
1101.00	416.62
1102.00	416.62
1103.00	379.17
1104.00	387.75
1105.00	411.93
1106.00	415.84
1107.00	432.22
1108.00	410.37
1109.00	437.68
1110.00	404.13
1111.00	393.99
1112.00	360.44
1113.00	418.96
1114.00	454.06
1115.00	456.40
1116.00	404.91
1117.00	379.95
1118.00	373.71
1119.00	375.27
1120.00	375.27
1121.00	389.31
1122.00	411.15
1123.00	399.45
1124.00	377.61
1125.00	389.31
1126.00	408.81
1127.00	433.00
1128.00	401.79
1129.00	394.77
1130.00	381.51
1131.00	371.36
1132.00	357.32
1133.00	383.85
1134.00	414.27
1135.00	429.10
1136.00	455.62
1137.00	476.69
1138.00	493.85
1139.00	460.31
1140.00	406.47
1141.00	382.29
1142.00	371.36
1143.00	414.27
1144.00	417.40
1145.00	448.60
1146.00	425.20
1147.00	447.82
1148.00	415.06
1149.00	436.90
1150.00	429.10
1151.00	436.90
1152.00	418.96
1153.00	409.59
1154.00	416.62
1155.00	411.93
1156.00	415.06
1157.00	401.01
1158.00	395.55
1159.00	379.17
1160.00	409.59
1161.00	422.08
1162.00	437.68
1163.00	419.74
1164.00	425.98
1165.00	438.46
1166.00	441.58
1167.00	413.49
1168.00	407.25
1169.00	393.99
1170.00	418.96
1171.00	406.47
1172.00	426.76
1173.00	422.86
1174.00	429.10
1175.00	438.46
1176.00	475.13
1177.00	500.87
1178.00	498.53
1179.00	465.77
1180.00	449.38
1181.00	424.42
1182.00	423.64
1183.00	417.40
1184.00	440.02
1185.00	416.62
1186.00	399.45
1187.00	374.49
1188.00	393.99
1189.00	427.54
1190.00	425.98
1191.00	443.14
1192.00	418.96
1193.00	433.78
1194.00	421.30
1195.00	440.80
1196.00	438.46
1197.00	453.28
1198.00	437.68
1199.00	436.12
1200.00	421.30
1201.00	440.02
1202.00	443.14
1203.00	434.56
1204.00	454.84
1205.00	438.46
1206.00	443.14
1207.00	393.21
1208.00	415.84
1209.00	407.25
1210.00	431.44
1211.00	429.88
1212.00	438.46
1213.00	418.96
1214.00	433.00
1215.00	440.02
1216.00	439.24
1217.00	410.37
1218.00	377.61
1219.00	372.15
1220.00	369.80
1221.00	383.07
1222.00	399.45
1223.00	406.47
1224.00	411.15
1225.00	411.15
1226.00	390.87
1227.00	393.99
1228.00	393.21
1229.00	421.30
1230.00	414.27
1231.00	426.76
1232.00	433.78
1233.00	456.40
1234.00	440.02
1235.00	433.00
1236.00	428.32
1237.00	414.27
1238.00	402.57
1239.00	412.71
1240.00	445.48
1241.00	463.43
1242.00	445.48
1243.00	436.90
1244.00	413.49
1245.00	418.18
1246.00	439.24
1247.00	466.55
1248.00	450.94
1249.00	432.22
1250.00	411.93
1251.00	410.37
1252.00	406.47
1253.00	395.55
1254.00	406.47
1255.00	390.09
1256.00	396.33
1257.00	393.99
1258.00	391.65
1259.00	374.49
1260.00	386.19
1261.00	408.81
1262.00	454.06
1263.00	454.06
1264.00	454.06
1265.00	443.92
1266.00	421.30
1267.00	417.40
1268.00	430.66
1269.00	438.46
1270.00	417.40
1271.00	398.67
1272.00	410.37
1273.00	414.27
1274.00	422.86
1275.00	398.67
1276.00	412.71
1277.00	381.51
1278.00	394.77
1279.00	383.85
1280.00	414.27
1281.00	440.80
1282.00	432.22
1283.00	429.88
1284.00	436.90
1285.00	438.46
1286.00	437.68
1287.00	408.81
1288.00	425.98
1289.00	418.96
1290.00	400.23
1291.00	389.31
1292.00	387.75
1293.00	422.86
1294.00	436.12
1295.00	450.16
1296.00	418.96
1297.00	389.31
1298.00	358.10
1299.00	374.49
1300.00	426.76
1301.00	436.90
1302.00	458.75
1303.00	450.16
1304.00	429.10
1305.00	404.13
1306.00	388.53
1307.00	404.91
1308.00	387.75
1309.00	394.77
1310.00	422.08
1311.00	434.56
1312.00	441.58
1313.00	419.74
1314.00	404.91
1315.00	387.75
1316.00	390.09
1317.00	398.67
1318.00	390.87
1319.00	394.77
1320.00	415.84
1321.00	390.87
1322.00	409.59
1323.00	389.31
1324.00	415.84
1325.00	401.01
1326.00	445.48
1327.00	464.21
1328.00	455.62
1329.00	447.82
1330.00	422.08
1331.00	461.87
1332.00	441.58
1333.00	459.53
1334.00	411.93
1335.00	411.93
1336.00	390.87
1337.00	413.49
1338.00	407.25
1339.00	435.34
1340.00	412.71
1341.00	401.79
1342.00	383.85
1343.00	404.13
1344.00	418.18
1345.00	418.18
1346.00	403.35
1347.00	393.99
1348.00	379.95
1349.00	368.24
1350.00	383.07
1351.00	422.08
1352.00	445.48
1353.00	424.42
1354.00	393.99
1355.00	386.97
1356.00	425.20
1357.00	453.28
1358.00	444.70
1359.00	429.88
1360.00	415.84
1361.00	408.03
1362.00	395.55
1363.00	401.01
1364.00	425.20
1365.00	426.76
1366.00	433.78
1367.00	433.00
1368.00	452.50
1369.00	436.12
1370.00	445.48
1371.00	430.66
1372.00	408.81
1373.00	404.13
1374.00	414.27
1375.00	420.52
1376.00	420.52
1377.00	412.71
1378.00	440.80
1379.00	435.34
1380.00	424.42
1381.00	397.89
1382.00	386.19
1383.00	388.53
1384.00	399.45
1385.00	424.42
1386.00	414.27
1387.00	408.81
1388.00	374.49
1389.00	394.77
1390.00	408.81
1391.00	418.18
1392.00	406.47
1393.00	415.06
1394.00	450.94
1395.00	461.09
1396.00	454.06
1397.00	407.25
1398.00	406.47
1399.00	394.77
1400.00	424.42
1401.00	434.56
1402.00	421.30
1403.00	405.69
1404.00	392.43
1405.00	422.86
1406.00	415.06
1407.00	415.84
1408.00	414.27
1409.00	426.76
1410.00	440.80
1411.00	422.86
1412.00	411.15
1413.00	408.81
1414.00	414.27
1415.00	416.62
1416.00	405.69
1417.00	393.99
1418.00	382.29
1419.00	362.78
1420.00	355.76
1421.00	384.63
1422.00	415.84
1423.00	435.34
1424.00	410.37
1425.00	407.25
1426.00	436.90
1427.00	465.77
1428.00	443.92
1429.00	407.25
1430.00	379.95
1431.00	378.39
1432.00	389.31
1433.00	401.79
1434.00	431.44
1435.00	426.76
1436.00	425.98
1437.00	405.69
1438.00	393.21
1439.00	373.71
1440.00	364.34
1441.00	375.27
1442.00	405.69
1443.00	415.84
1444.00	408.81
1445.00	403.35
1446.00	425.98
1447.00	429.10
1448.00	439.24
1449.00	410.37
1450.00	409.59
1451.00	407.25
1452.00	411.15
1453.00	440.80
1454.00	420.52
1455.00	420.52
1456.00	388.53
1457.00	386.19
1458.00	433.78
1459.00	433.00
1460.00	438.46
1461.00	421.30
1462.00	424.42
1463.00	436.12
1464.00	425.98
1465.00	437.68
1466.00	413.49
1467.00	394.77
1468.00	390.87
1469.00	419.74
1470.00	415.06
1471.00	407.25
1472.00	416.62
1473.00	415.84
1474.00	392.43
1475.00	352.64
1476.00	351.08
1477.00	375.27
1478.00	411.15
1479.00	427.54
1480.00	420.52
1481.00	384.63
1482.00	380.73
1483.00	394.77
1484.00	419.74
1485.00	384.63
1486.00	394.77
1487.00	362.78
1488.00	414.27
1489.00	402.57
1490.00	440.80
1491.00	415.84
1492.00	411.93
1493.00	389.31
1494.00	383.85
1495.00	401.01
1496.00	422.86
1497.00	429.10
1498.00	422.08
1499.00	402.57
1500.00	403.35
1501.00	375.27
1502.00	370.58
1503.00	354.20
1504.00	361.22
1505.00	386.19
1506.00	384.63
1507.00	386.19
1508.00	361.22
1509.00	386.19
1510.00	409.59
1511.00	429.88
1512.00	427.54
1513.00	421.30
1514.00	401.79
1515.00	372.93
1516.00	338.60
1517.00	335.48
1518.00	352.64
1519.00	361.22
1520.00	358.88
1521.00	367.46
1522.00	380.73
1523.00	401.79
1524.00	401.79
1525.00	413.49
1526.00	400.23
1527.00	416.62
1528.00	404.13
1529.00	411.93
1530.00	382.29
1531.00	410.37
1532.00	413.49
1533.00	436.12
1534.00	426.76
1535.00	412.71
1536.00	402.57
1537.00	418.18
1538.00	427.54
1539.00	432.22
1540.00	390.09
1541.00	397.11
1542.00	387.75
1543.00	393.99
1544.00	353.42
1545.00	344.06
1546.00	340.94
1547.00	380.73
1548.00	401.79
1549.00	418.18
1550.00	422.86
1551.00	395.55
1552.00	395.55
1553.00	402.57
1554.00	412.71
1555.00	388.53
1556.00	375.27
1557.00	372.15
1558.00	393.21
1559.00	405.69
1560.00	420.52
1561.00	426.76
1562.00	420.52
1563.00	429.88
1564.00	422.86
1565.00	408.03
1566.00	395.55
1567.00	412.71
1568.00	426.76
1569.00	422.08
1570.00	411.93
1571.00	400.23
1572.00	393.21
1573.00	377.61
1574.00	393.21
1575.00	394.77
1576.00	386.19
1577.00	369.80
1578.00	383.85
1579.00	390.09
1580.00	380.73
1581.00	397.89
1582.00	422.08
1583.00	433.78
1584.00	418.18
1585.00	406.47
1586.00	422.08
1587.00	425.98
1588.00	411.15
1589.00	390.09
1590.00	374.49
1591.00	376.83
1592.00	413.49
1593.00	403.35
1594.00	427.54
1595.00	402.57
1596.00	435.34
1597.00	431.44
1598.00	422.86
1599.00	418.18
1600.00	403.35
1601.00	405.69
1602.00	400.23
1603.00	425.98
1604.00	427.54
1605.00	419.74
1606.00	409.59
1607.00	404.13
1608.00	411.93
1609.00	393.99
1610.00	372.15
1611.00	376.05
1612.00	373.71
1613.00	401.01
1614.00	404.13
1615.00	423.64
1616.00	429.88
1617.00	424.42
1618.00	426.76
1619.00	418.18
1620.00	435.34
1621.00	429.88
1622.00	427.54
1623.00	392.43
1624.00	408.81
1625.00	411.93
1626.00	387.75
1627.00	359.66
1628.00	386.19
1629.00	401.01
1630.00	422.86
1631.00	377.61
1632.00	386.97
1633.00	371.36
1634.00	377.61
1635.00	390.09
1636.00	382.29
1637.00	409.59
1638.00	409.59
1639.00	422.86
1640.00	386.97
1641.00	379.95
1642.00	390.09
1643.00	408.03
1644.00	400.23
1645.00	358.10
1646.00	365.12
1647.00	347.96
1648.00	369.02
1649.00	364.34
1650.00	405.69
1651.00	390.09
1652.00	411.93
1653.00	394.77
1654.00	418.18
1655.00	399.45
1656.00	392.43
1657.00	381.51
1658.00	362.00
1659.00	407.25
1660.00	423.64
1661.00	447.04
1662.00	411.93
1663.00	404.91
1664.00	420.52
1665.00	422.86
1666.00	399.45
1667.00	383.07
1668.00	403.35
1669.00	433.78
1670.00	426.76
1671.00	411.93
1672.00	425.20
1673.00	433.00
1674.00	421.30
1675.00	379.17
1676.00	368.24
1677.00	371.36
1678.00	395.55
1679.00	411.15
1680.00	443.92
1681.00	450.94
1682.00	442.36
1683.00	419.74
1684.00	452.50
1685.00	543.78
1686.00	754.43
1687.00	1028.28
1688.00	1369.99
1689.00	1671.14
1690.00	1901.30
1691.00	1937.96
1692.00	1779.59
1693.00	1443.33
1694.00	1089.13
1695.00	829.33
1696.00	658.47
1697.00	558.61
1698.00	487.61
1699.00	439.24
1700.00	417.40
1701.00	382.29
1702.00	379.95
1703.00	393.21
1704.00	369.80
1705.00	397.89
1706.00	401.79
1707.00	411.15
1708.00	390.09
1709.00	378.39
1710.00	411.93
1711.00	408.03
1712.00	425.20
1713.00	411.93
1714.00	442.36
1715.00	427.54
1716.00	416.62
1717.00	391.65
1718.00	380.73
1719.00	401.01
1720.00	393.99
1721.00	418.96
1722.00	404.13
1723.00	393.99
1724.00	390.87
1725.00	406.47
1726.00	431.44
1727.00	408.03
1728.00	408.81
1729.00	392.43
1730.00	424.42
1731.00	429.10
1732.00	433.00
1733.00	404.91
1734.00	384.63
1735.00	394.77
1736.00	382.29
1737.00	376.05
1738.00	371.36
1739.00	381.51
1740.00	408.81
1741.00	404.13
1742.00	404.13
1743.00	391.65
1744.00	380.73
1745.00	373.71
1746.00	359.66
1747.00	344.06
1748.00	358.10
1749.00	371.36
1750.00	395.55
1751.00	379.17
1752.00	363.56
1753.00	384.63
1754.00	412.71
1755.00	434.56
1756.00	415.06
1757.00	387.75
1758.00	381.51
1759.00	379.95
1760.00	379.95
1761.00	355.76
1762.00	363.56
1763.00	385.41
1764.00	392.43
1765.00	391.65
1766.00	365.90
1767.00	353.42
1768.00	353.42
1769.00	352.64
1770.00	366.68
1771.00	362.00
1772.00	363.56
1773.00	356.54
1774.00	383.85
1775.00	389.31
1776.00	397.11
1777.00	375.27
1778.00	397.11
1779.00	401.79
1780.00	406.47
1781.00	390.09
1782.00	386.97
1783.00	414.27
1784.00	415.06
1785.00	435.34
1786.00	395.55
1787.00	402.57
1788.00	385.41
1789.00	391.65
1790.00	399.45
1791.00	393.21
1792.00	411.93
1793.00	411.93
1794.00	397.11
1795.00	379.17
1796.00	390.09
1797.00	418.96
1798.00	438.46
1799.00	403.35
1800.00	416.62
1801.00	370.58
1802.00	398.67
1803.00	395.55
1804.00	401.01
1805.00	393.21
1806.00	382.29
1807.00	406.47
1808.00	391.65
1809.00	398.67
1810.00	362.00
1811.00	372.93
1812.00	369.02
1813.00	383.07
1814.00	384.63
1815.00	367.46
1816.00	393.21
1817.00	382.29
1818.00	402.57
1819.00	401.01
1820.00	402.57
1821.00	386.19
1822.00	383.85
1823.00	395.55
1824.00	426.76
1825.00	433.00
1826.00	430.66
1827.00	405.69
1828.00	386.97
1829.00	391.65
1830.00	416.62
1831.00	433.78
1832.00	429.88
1833.00	388.53
1834.00	371.36
1835.00	358.88
1836.00	377.61
1837.00	377.61
1838.00	379.17
1839.00	372.15
1840.00	381.51
1841.00	387.75
1842.00	394.77
1843.00	390.87
1844.00	397.89
1845.00	407.25
1846.00	397.11
1847.00	393.99
1848.00	393.21
1849.00	393.21
1850.00	393.99
1851.00	390.09
1852.00	384.63
1853.00	357.32
1854.00	333.92
1855.00	337.82
1856.00	368.24
1857.00	378.39
1858.00	379.17
1859.00	365.12
1860.00	372.93
1861.00	411.15
1862.00	393.99
1863.00	388.53
1864.00	368.24
1865.00	401.79
1866.00	402.57
1867.00	406.47
1868.00	388.53
1869.00	398.67
1870.00	379.95
1871.00	371.36
1872.00	369.02
1873.00	403.35
1874.00	415.84
1875.00	429.10
1876.00	415.84
1877.00	422.86
1878.00	403.35
1879.00	409.59
1880.00	401.01
1881.00	379.17
1882.00	340.94
1883.00	345.62
1884.00	383.07
1885.00	427.54
1886.00	434.56
1887.00	437.68
1888.00	414.27
1889.00	415.84
1890.00	397.11
1891.00	396.33
1892.00	392.43
1893.00	384.63
1894.00	383.85
1895.00	371.36
1896.00	376.83
1897.00	373.71
1898.00	363.56
1899.00	376.05
1900.00	381.51
1901.00	408.03
1902.00	410.37
1903.00	409.59
1904.00	392.43
1905.00	384.63
1906.00	360.44
1907.00	363.56
1908.00	347.96
1909.00	374.49
1910.00	358.88
1911.00	358.10
1912.00	329.24
1913.00	366.68
1914.00	365.90
1915.00	421.30
1916.00	390.87
1917.00	394.77
1918.00	380.73
1919.00	394.77
1920.00	411.93
1921.00	400.23
1922.00	409.59
1923.00	389.31
1924.00	369.02
1925.00	340.16
1926.00	338.60
1927.00	350.30
1928.00	372.93
1929.00	372.93
1930.00	389.31
1931.00	362.78
1932.00	376.05
1933.00	372.15
1934.00	401.79
1935.00	421.30
1936.00	427.54
1937.00	412.71
1938.00	403.35
1939.00	386.19
1940.00	406.47
1941.00	398.67
1942.00	408.81
1943.00	380.73
1944.00	362.00
1945.00	354.20
1946.00	365.12
1947.00	362.00
1948.00	364.34
1949.00	361.22
1950.00	378.39
1951.00	372.15
1952.00	367.46
1953.00	372.93
1954.00	384.63
1955.00	380.73
1956.00	381.51
1957.00	363.56
1958.00	372.15
1959.00	373.71
1960.00	386.19
1961.00	381.51
1962.00	390.87
1963.00	362.78
1964.00	370.58
1965.00	339.38
1966.00	358.88
1967.00	362.78
1968.00	376.05
1969.00	379.95
1970.00	373.71
1971.00	375.27
1972.00	394.77
1973.00	434.56
1974.00	440.02
1975.00	417.40
1976.00	379.95
1977.00	365.12
1978.00	364.34
1979.00	365.90
1980.00	379.17
1981.00	387.75
1982.00	398.67
1983.00	373.71
1984.00	352.64
1985.00	333.92
1986.00	344.84
1987.00	372.15
1988.00	375.27
1989.00	405.69
1990.00	410.37
1991.00	404.91
1992.00	371.36
1993.00	355.76
1994.00	360.44
1995.00	346.40
1996.00	320.65
1997.00	318.31
1998.00	358.10
1999.00	395.55
2000.00	402.57
2001.00	422.86
2002.00	448.60
2003.00	439.24
2004.00	384.63
2005.00	323.77
2006.00	362.00
2007.00	368.24
2008.00	370.58
2009.00	346.40
2010.00	346.40
2011.00	387.75
2012.00	405.69
2013.00	430.66
2014.00	405.69
2015.00	377.61
2016.00	378.39
2017.00	389.31
2018.00	401.79
2019.00	386.97
2020.00	381.51
2021.00	381.51
2022.00	403.35
2023.00	430.66
2024.00	433.78
2025.00	422.08
2026.00	390.09
2027.00	385.41
2028.00	374.49
2029.00	371.36
2030.00	379.17
2031.00	395.55
2032.00	395.55
2033.00	393.99
2034.00	387.75
2035.00	372.15
2036.00	355.76
2037.00	362.00
2038.00	391.65
2039.00	395.55
2040.00	364.34
2041.00	347.18
2042.00	335.48
2043.00	355.76
2044.00	379.95
2045.00	393.99
2046.00	390.87
2047.00	369.80
>>>>>End Processed Spectral Data<<<<<
