SpectraSuite Data File
++++++++++++++++++++++++++++++++++++
Date: Thu Nov 16 14:27:20 EST 2017
User: cheriyan
Dark Spectrum Present: No
Reference Spectrum Present: No
Number of Sampled Component Spectra: 1
Spectrometers: USB2+H05261
Integration Time (usec): 100000 (USB2+H05261)
Spectra Averaged: 1 (USB2+H05261)
Boxcar Smoothing: 1 (USB2+H05261)
Correct for Electrical Dark: No (USB2+H05261)
Strobe/Lamp Enabled: No (USB2+H05261)
Correct for Detector Non-linearity: No (USB2+H05261)
Correct for Stray Light: No (USB2+H05261)
Number of Pixels in Processed Spectrum: 2048
>>>>>Begin Processed Spectral Data<<<<<
0.00	257.46
1.00	257.46
2.00	246.54
3.00	223.13
4.00	205.19
5.00	177.10
6.00	188.02
7.00	173.20
8.00	188.02
9.00	170.08
10.00	191.14
11.00	186.46
12.00	190.36
13.00	189.58
14.00	213.77
15.00	230.15
16.00	243.42
17.00	209.87
18.00	202.07
19.00	209.09
20.00	258.24
21.00	277.74
22.00	274.62
23.00	275.40
24.00	267.60
25.00	280.86
26.00	313.63
27.00	355.76
28.00	369.80
29.00	339.38
30.00	336.26
31.00	327.67
32.00	333.14
33.00	344.84
34.00	373.71
35.00	371.36
36.00	372.15
37.00	347.18
38.00	358.88
39.00	362.00
40.00	364.34
41.00	375.27
42.00	367.46
43.00	391.65
44.00	407.25
45.00	406.47
46.00	385.41
47.00	397.89
48.00	416.62
49.00	442.36
50.00	438.46
51.00	418.18
52.00	403.35
53.00	363.56
54.00	374.49
55.00	363.56
56.00	380.73
57.00	383.07
58.00	388.53
59.00	420.52
60.00	390.09
61.00	390.87
62.00	351.86
63.00	357.32
64.00	337.82
65.00	356.54
66.00	388.53
67.00	424.42
68.00	424.42
69.00	393.99
70.00	391.65
71.00	405.69
72.00	449.38
73.00	449.38
74.00	445.48
75.00	408.81
76.00	379.95
77.00	372.93
78.00	359.66
79.00	393.99
80.00	376.83
81.00	374.49
82.00	354.98
83.00	345.62
84.00	362.00
85.00	388.53
86.00	419.74
87.00	420.52
88.00	414.27
89.00	401.01
90.00	418.18
91.00	418.18
92.00	425.98
93.00	413.49
94.00	384.63
95.00	354.98
96.00	350.30
97.00	360.44
98.00	381.51
99.00	393.21
100.00	398.67
101.00	407.25
102.00	377.61
103.00	377.61
104.00	356.54
105.00	397.11
106.00	379.17
107.00	376.83
108.00	345.62
109.00	352.64
110.00	359.66
111.00	369.80
112.00	362.78
113.00	376.83
114.00	378.39
115.00	410.37
116.00	405.69
117.00	404.91
118.00	382.29
119.00	365.12
120.00	363.56
121.00	366.68
122.00	385.41
123.00	383.07
124.00	376.05
125.00	382.29
126.00	383.85
127.00	377.61
128.00	362.78
129.00	376.05
130.00	388.53
131.00	377.61
132.00	380.73
133.00	383.07
134.00	385.41
135.00	361.22
136.00	388.53
137.00	408.81
138.00	428.32
139.00	396.33
140.00	397.89
141.00	415.06
142.00	429.88
143.00	412.71
144.00	400.23
145.00	396.33
146.00	397.89
147.00	366.68
148.00	353.42
149.00	362.00
150.00	393.21
151.00	390.87
152.00	409.59
153.00	393.99
154.00	417.40
155.00	390.09
156.00	423.64
157.00	404.13
158.00	411.15
159.00	382.29
160.00	396.33
161.00	395.55
162.00	423.64
163.00	396.33
164.00	411.93
165.00	380.73
166.00	411.15
167.00	401.01
168.00	404.13
169.00	395.55
170.00	372.15
171.00	386.19
172.00	391.65
173.00	420.52
174.00	417.40
175.00	420.52
176.00	398.67
177.00	393.99
178.00	387.75
179.00	358.88
180.00	347.18
181.00	336.26
182.00	383.07
183.00	399.45
184.00	387.75
185.00	374.49
186.00	376.83
187.00	401.01
188.00	415.06
189.00	389.31
190.00	367.46
191.00	350.30
192.00	376.05
193.00	398.67
194.00	388.53
195.00	354.20
196.00	362.00
197.00	376.83
198.00	408.03
199.00	403.35
200.00	395.55
201.00	406.47
202.00	399.45
203.00	377.61
204.00	378.39
205.00	392.43
206.00	452.50
207.00	447.04
208.00	435.34
209.00	409.59
210.00	404.91
211.00	387.75
212.00	395.55
213.00	377.61
214.00	397.11
215.00	386.97
216.00	414.27
217.00	413.49
218.00	403.35
219.00	389.31
220.00	375.27
221.00	388.53
222.00	379.17
223.00	390.09
224.00	406.47
225.00	425.20
226.00	426.76
227.00	406.47
228.00	392.43
229.00	373.71
230.00	373.71
231.00	406.47
232.00	419.74
233.00	443.92
234.00	429.88
235.00	430.66
236.00	406.47
237.00	386.19
238.00	359.66
239.00	355.76
240.00	358.88
241.00	397.89
242.00	403.35
243.00	415.06
244.00	390.09
245.00	374.49
246.00	372.93
247.00	376.83
248.00	400.23
249.00	389.31
250.00	411.93
251.00	409.59
252.00	404.13
253.00	389.31
254.00	395.55
255.00	397.11
256.00	376.83
257.00	375.27
258.00	349.52
259.00	359.66
260.00	349.52
261.00	386.19
262.00	408.81
263.00	422.86
264.00	415.06
265.00	403.35
266.00	377.61
267.00	379.17
268.00	366.68
269.00	377.61
270.00	391.65
271.00	415.84
272.00	439.24
273.00	422.08
274.00	412.71
275.00	389.31
276.00	400.23
277.00	398.67
278.00	400.23
279.00	397.11
280.00	423.64
281.00	438.46
282.00	422.86
283.00	398.67
284.00	401.01
285.00	421.30
286.00	431.44
287.00	418.18
288.00	397.11
289.00	399.45
290.00	387.75
291.00	402.57
292.00	387.75
293.00	386.19
294.00	385.41
295.00	379.95
296.00	400.23
297.00	392.43
298.00	391.65
299.00	382.29
300.00	388.53
301.00	369.02
302.00	376.05
303.00	369.80
304.00	399.45
305.00	379.95
306.00	389.31
307.00	372.93
308.00	390.09
309.00	399.45
310.00	403.35
311.00	386.19
312.00	388.53
313.00	404.13
314.00	408.81
315.00	382.29
316.00	362.00
317.00	391.65
318.00	410.37
319.00	431.44
320.00	403.35
321.00	382.29
322.00	368.24
323.00	376.83
324.00	419.74
325.00	433.00
326.00	405.69
327.00	372.15
328.00	344.84
329.00	356.54
330.00	354.98
331.00	382.29
332.00	402.57
333.00	417.40
334.00	424.42
335.00	427.54
336.00	417.40
337.00	383.07
338.00	372.15
339.00	388.53
340.00	411.93
341.00	438.46
342.00	395.55
343.00	384.63
344.00	366.68
345.00	397.89
346.00	369.02
347.00	356.54
348.00	341.72
349.00	388.53
350.00	389.31
351.00	401.01
352.00	401.79
353.00	429.10
354.00	418.18
355.00	418.18
356.00	378.39
357.00	386.19
358.00	356.54
359.00	377.61
360.00	379.95
361.00	413.49
362.00	401.79
363.00	383.85
364.00	359.66
365.00	387.75
366.00	405.69
367.00	405.69
368.00	403.35
369.00	392.43
370.00	401.01
371.00	395.55
372.00	393.99
373.00	400.23
374.00	390.09
375.00	380.73
376.00	362.00
377.00	358.88
378.00	377.61
379.00	388.53
380.00	365.12
381.00	360.44
382.00	374.49
383.00	384.63
384.00	382.29
385.00	390.09
386.00	411.93
387.00	417.40
388.00	407.25
389.00	395.55
390.00	392.43
391.00	394.77
392.00	403.35
393.00	405.69
394.00	384.63
395.00	376.83
396.00	389.31
397.00	409.59
398.00	424.42
399.00	421.30
400.00	409.59
401.00	408.03
402.00	408.03
403.00	396.33
404.00	399.45
405.00	405.69
406.00	404.13
407.00	382.29
408.00	351.86
409.00	362.00
410.00	351.08
411.00	372.15
412.00	400.23
413.00	411.15
414.00	415.84
415.00	380.73
416.00	387.75
417.00	362.78
418.00	390.87
419.00	397.11
420.00	404.13
421.00	400.23
422.00	386.97
423.00	409.59
424.00	418.96
425.00	431.44
426.00	397.11
427.00	385.41
428.00	382.29
429.00	415.84
430.00	399.45
431.00	402.57
432.00	393.99
433.00	401.01
434.00	398.67
435.00	390.87
436.00	379.95
437.00	378.39
438.00	383.07
439.00	413.49
440.00	408.81
441.00	412.71
442.00	397.89
443.00	415.06
444.00	427.54
445.00	410.37
446.00	409.59
447.00	418.18
448.00	422.08
449.00	407.25
450.00	389.31
451.00	411.15
452.00	407.25
453.00	400.23
454.00	396.33
455.00	437.68
456.00	465.77
457.00	468.11
458.00	413.49
459.00	380.73
460.00	379.95
461.00	381.51
462.00	362.00
463.00	343.28
464.00	347.96
465.00	358.10
466.00	351.08
467.00	362.78
468.00	365.90
469.00	365.90
470.00	373.71
471.00	392.43
472.00	403.35
473.00	417.40
474.00	411.93
475.00	428.32
476.00	415.84
477.00	433.78
478.00	428.32
479.00	449.38
480.00	435.34
481.00	450.94
482.00	445.48
483.00	412.71
484.00	395.55
485.00	360.44
486.00	378.39
487.00	358.88
488.00	386.19
489.00	420.52
490.00	421.30
491.00	410.37
492.00	389.31
493.00	419.74
494.00	433.78
495.00	436.12
496.00	423.64
497.00	393.21
498.00	376.83
499.00	360.44
500.00	390.09
501.00	411.93
502.00	418.96
503.00	411.15
504.00	414.27
505.00	412.71
506.00	416.62
507.00	404.91
508.00	431.44
509.00	440.02
510.00	445.48
511.00	453.28
512.00	426.76
513.00	433.78
514.00	408.03
515.00	402.57
516.00	388.53
517.00	403.35
518.00	411.15
519.00	400.23
520.00	392.43
521.00	408.03
522.00	428.32
523.00	415.84
524.00	389.31
525.00	379.95
526.00	373.71
527.00	404.91
528.00	408.81
529.00	404.91
530.00	378.39
531.00	367.46
532.00	388.53
533.00	390.87
534.00	411.93
535.00	407.25
536.00	424.42
537.00	447.04
538.00	435.34
539.00	448.60
540.00	422.86
541.00	433.78
542.00	415.06
543.00	425.20
544.00	425.20
545.00	415.06
546.00	388.53
547.00	393.21
548.00	402.57
549.00	405.69
550.00	393.99
551.00	389.31
552.00	390.09
553.00	395.55
554.00	386.97
555.00	390.87
556.00	399.45
557.00	409.59
558.00	422.08
559.00	416.62
560.00	415.84
561.00	400.23
562.00	392.43
563.00	399.45
564.00	393.21
565.00	389.31
566.00	396.33
567.00	422.86
568.00	414.27
569.00	402.57
570.00	379.17
571.00	419.74
572.00	405.69
573.00	432.22
574.00	432.22
575.00	434.56
576.00	409.59
577.00	371.36
578.00	373.71
579.00	381.51
580.00	396.33
581.00	400.23
582.00	386.19
583.00	383.85
584.00	386.97
585.00	422.86
586.00	434.56
587.00	415.84
588.00	373.71
589.00	366.68
590.00	386.97
591.00	405.69
592.00	395.55
593.00	379.17
594.00	371.36
595.00	366.68
596.00	383.07
597.00	396.33
598.00	409.59
599.00	422.08
600.00	415.84
601.00	424.42
602.00	406.47
603.00	414.27
604.00	401.79
605.00	411.15
606.00	408.03
607.00	390.09
608.00	379.17
609.00	378.39
610.00	384.63
611.00	390.87
612.00	364.34
613.00	362.00
614.00	360.44
615.00	390.87
616.00	401.79
617.00	409.59
618.00	402.57
619.00	415.84
620.00	390.87
621.00	388.53
622.00	384.63
623.00	383.85
624.00	390.87
625.00	377.61
626.00	399.45
627.00	390.87
628.00	418.18
629.00	416.62
630.00	423.64
631.00	411.15
632.00	422.86
633.00	425.20
634.00	455.62
635.00	499.31
636.00	577.33
637.00	595.28
638.00	568.75
639.00	533.64
640.00	510.24
641.00	495.41
642.00	447.82
643.00	416.62
644.00	403.35
645.00	379.17
646.00	390.87
647.00	386.97
648.00	419.74
649.00	411.93
650.00	422.08
651.00	409.59
652.00	386.19
653.00	373.71
654.00	408.03
655.00	405.69
656.00	401.01
657.00	357.32
658.00	364.34
659.00	374.49
660.00	390.09
661.00	391.65
662.00	383.07
663.00	374.49
664.00	398.67
665.00	404.91
666.00	421.30
667.00	418.96
668.00	421.30
669.00	423.64
670.00	414.27
671.00	416.62
672.00	404.13
673.00	404.13
674.00	401.79
675.00	418.96
676.00	456.40
677.00	464.99
678.00	461.09
679.00	468.11
680.00	465.77
681.00	448.60
682.00	415.06
683.00	407.25
684.00	420.52
685.00	419.74
686.00	395.55
687.00	376.83
688.00	377.61
689.00	399.45
690.00	403.35
691.00	395.55
692.00	396.33
693.00	422.08
694.00	424.42
695.00	447.04
696.00	423.64
697.00	418.18
698.00	405.69
699.00	398.67
700.00	410.37
701.00	411.15
702.00	429.88
703.00	426.76
704.00	418.96
705.00	411.93
706.00	419.74
707.00	421.30
708.00	416.62
709.00	410.37
710.00	388.53
711.00	365.90
712.00	354.20
713.00	371.36
714.00	403.35
715.00	413.49
716.00	401.79
717.00	397.89
718.00	436.90
719.00	453.28
720.00	439.24
721.00	389.31
722.00	404.13
723.00	433.00
724.00	450.94
725.00	430.66
726.00	433.00
727.00	401.01
728.00	406.47
729.00	398.67
730.00	407.25
731.00	391.65
732.00	386.19
733.00	395.55
734.00	400.23
735.00	371.36
736.00	362.00
737.00	369.80
738.00	384.63
739.00	397.89
740.00	384.63
741.00	379.95
742.00	373.71
743.00	412.71
744.00	436.12
745.00	432.22
746.00	427.54
747.00	418.96
748.00	455.62
749.00	446.26
750.00	467.33
751.00	451.72
752.00	423.64
753.00	404.91
754.00	394.77
755.00	416.62
756.00	411.15
757.00	415.84
758.00	411.93
759.00	420.52
760.00	412.71
761.00	386.97
762.00	384.63
763.00	376.83
764.00	409.59
765.00	404.91
766.00	404.13
767.00	397.89
768.00	385.41
769.00	373.71
770.00	358.88
771.00	392.43
772.00	407.25
773.00	422.86
774.00	379.95
775.00	392.43
776.00	398.67
777.00	411.93
778.00	381.51
779.00	369.02
780.00	366.68
781.00	384.63
782.00	395.55
783.00	479.81
784.00	479.03
785.00	461.87
786.00	375.27
787.00	376.83
788.00	383.85
789.00	389.31
790.00	396.33
791.00	374.49
792.00	381.51
793.00	389.31
794.00	406.47
795.00	405.69
796.00	401.79
797.00	411.93
798.00	411.93
799.00	411.15
800.00	401.01
801.00	403.35
802.00	407.25
803.00	406.47
804.00	409.59
805.00	385.41
806.00	374.49
807.00	358.88
808.00	373.71
809.00	390.09
810.00	386.97
811.00	398.67
812.00	411.15
813.00	408.81
814.00	396.33
815.00	401.79
816.00	423.64
817.00	422.86
818.00	390.87
819.00	383.85
820.00	383.07
821.00	408.03
822.00	418.18
823.00	399.45
824.00	376.83
825.00	361.22
826.00	393.21
827.00	393.21
828.00	386.19
829.00	377.61
830.00	417.40
831.00	443.92
832.00	433.00
833.00	402.57
834.00	374.49
835.00	376.05
836.00	392.43
837.00	417.40
838.00	432.22
839.00	437.68
840.00	436.12
841.00	437.68
842.00	404.13
843.00	390.09
844.00	378.39
845.00	414.27
846.00	431.44
847.00	418.96
848.00	395.55
849.00	390.09
850.00	401.79
851.00	411.15
852.00	411.15
853.00	401.79
854.00	375.27
855.00	377.61
856.00	390.09
857.00	412.71
858.00	422.86
859.00	422.86
860.00	435.34
861.00	383.85
862.00	398.67
863.00	386.97
864.00	411.15
865.00	376.83
866.00	381.51
867.00	382.29
868.00	397.11
869.00	383.07
870.00	400.23
871.00	392.43
872.00	398.67
873.00	359.66
874.00	376.83
875.00	372.15
876.00	403.35
877.00	390.09
878.00	396.33
879.00	387.75
880.00	399.45
881.00	401.79
882.00	423.64
883.00	425.98
884.00	401.79
885.00	369.02
886.00	349.52
887.00	344.06
888.00	340.94
889.00	368.24
890.00	409.59
891.00	429.88
892.00	425.98
893.00	407.25
894.00	415.06
895.00	412.71
896.00	431.44
897.00	421.30
898.00	408.03
899.00	417.40
900.00	440.80
901.00	444.70
902.00	431.44
903.00	400.23
904.00	403.35
905.00	430.66
906.00	447.82
907.00	443.14
908.00	407.25
909.00	765.36
910.00	778.62
911.00	779.40
912.00	421.30
913.00	422.08
914.00	406.47
915.00	390.09
916.00	382.29
917.00	412.71
918.00	430.66
919.00	426.76
920.00	396.33
921.00	398.67
922.00	429.10
923.00	442.36
924.00	411.15
925.00	379.17
926.00	388.53
927.00	393.21
928.00	409.59
929.00	402.57
930.00	403.35
931.00	414.27
932.00	383.85
933.00	383.85
934.00	350.30
935.00	390.87
936.00	428.32
937.00	448.60
938.00	432.22
939.00	406.47
940.00	415.84
941.00	430.66
942.00	457.96
943.00	437.68
944.00	411.93
945.00	373.71
946.00	376.05
947.00	395.55
948.00	411.93
949.00	406.47
950.00	402.57
951.00	375.27
952.00	383.85
953.00	369.02
954.00	370.58
955.00	379.95
956.00	397.11
957.00	441.58
958.00	430.66
959.00	440.02
960.00	415.06
961.00	418.96
962.00	422.08
963.00	404.91
964.00	398.67
965.00	383.07
966.00	367.46
967.00	348.74
968.00	345.62
969.00	389.31
970.00	423.64
971.00	417.40
972.00	430.66
973.00	415.84
974.00	433.78
975.00	417.40
976.00	400.23
977.00	401.01
978.00	413.49
979.00	442.36
980.00	424.42
981.00	414.27
982.00	406.47
983.00	405.69
984.00	398.67
985.00	393.21
986.00	411.15
987.00	418.18
988.00	405.69
989.00	395.55
990.00	392.43
991.00	396.33
992.00	381.51
993.00	383.07
994.00	398.67
995.00	439.24
996.00	460.31
997.00	454.84
998.00	418.96
999.00	389.31
1000.00	396.33
1001.00	413.49
1002.00	404.13
1003.00	412.71
1004.00	404.91
1005.00	413.49
1006.00	388.53
1007.00	399.45
1008.00	415.06
1009.00	432.22
1010.00	445.48
1011.00	435.34
1012.00	444.70
1013.00	397.89
1014.00	398.67
1015.00	361.22
1016.00	388.53
1017.00	362.00
1018.00	366.68
1019.00	347.96
1020.00	372.15
1021.00	377.61
1022.00	396.33
1023.00	401.01
1024.00	425.98
1025.00	415.84
1026.00	413.49
1027.00	418.18
1028.00	417.40
1029.00	425.20
1030.00	404.91
1031.00	401.01
1032.00	398.67
1033.00	412.71
1034.00	414.27
1035.00	400.23
1036.00	382.29
1037.00	410.37
1038.00	403.35
1039.00	431.44
1040.00	421.30
1041.00	420.52
1042.00	396.33
1043.00	383.07
1044.00	399.45
1045.00	419.74
1046.00	397.89
1047.00	391.65
1048.00	365.12
1049.00	378.39
1050.00	382.29
1051.00	384.63
1052.00	403.35
1053.00	393.21
1054.00	383.85
1055.00	363.56
1056.00	387.75
1057.00	377.61
1058.00	397.11
1059.00	375.27
1060.00	400.23
1061.00	412.71
1062.00	415.06
1063.00	422.86
1064.00	403.35
1065.00	406.47
1066.00	407.25
1067.00	415.84
1068.00	408.81
1069.00	408.81
1070.00	394.77
1071.00	379.17
1072.00	376.05
1073.00	397.11
1074.00	420.52
1075.00	411.93
1076.00	406.47
1077.00	405.69
1078.00	404.91
1079.00	424.42
1080.00	412.71
1081.00	407.25
1082.00	379.95
1083.00	405.69
1084.00	390.09
1085.00	395.55
1086.00	405.69
1087.00	451.72
1088.00	448.60
1089.00	422.08
1090.00	396.33
1091.00	387.75
1092.00	382.29
1093.00	365.90
1094.00	388.53
1095.00	402.57
1096.00	390.09
1097.00	379.17
1098.00	370.58
1099.00	420.52
1100.00	421.30
1101.00	422.86
1102.00	406.47
1103.00	386.97
1104.00	396.33
1105.00	370.58
1106.00	385.41
1107.00	370.58
1108.00	404.91
1109.00	415.84
1110.00	399.45
1111.00	372.15
1112.00	347.96
1113.00	376.05
1114.00	372.93
1115.00	381.51
1116.00	375.27
1117.00	415.84
1118.00	425.20
1119.00	427.54
1120.00	418.18
1121.00	411.93
1122.00	428.32
1123.00	415.06
1124.00	401.79
1125.00	372.93
1126.00	381.51
1127.00	415.06
1128.00	408.03
1129.00	404.91
1130.00	393.21
1131.00	419.74
1132.00	398.67
1133.00	400.23
1134.00	409.59
1135.00	433.78
1136.00	446.26
1137.00	445.48
1138.00	425.98
1139.00	416.62
1140.00	393.99
1141.00	422.08
1142.00	414.27
1143.00	431.44
1144.00	420.52
1145.00	398.67
1146.00	362.00
1147.00	367.46
1148.00	371.36
1149.00	386.97
1150.00	377.61
1151.00	389.31
1152.00	404.91
1153.00	408.81
1154.00	410.37
1155.00	430.66
1156.00	418.18
1157.00	417.40
1158.00	409.59
1159.00	401.79
1160.00	418.18
1161.00	408.03
1162.00	413.49
1163.00	407.25
1164.00	417.40
1165.00	434.56
1166.00	438.46
1167.00	415.06
1168.00	390.09
1169.00	362.78
1170.00	365.12
1171.00	378.39
1172.00	412.71
1173.00	399.45
1174.00	400.23
1175.00	409.59
1176.00	434.56
1177.00	443.14
1178.00	437.68
1179.00	448.60
1180.00	451.72
1181.00	463.43
1182.00	459.53
1183.00	443.14
1184.00	425.98
1185.00	399.45
1186.00	393.21
1187.00	365.90
1188.00	354.98
1189.00	360.44
1190.00	377.61
1191.00	396.33
1192.00	380.73
1193.00	383.07
1194.00	376.83
1195.00	399.45
1196.00	390.87
1197.00	375.27
1198.00	397.89
1199.00	404.13
1200.00	439.24
1201.00	448.60
1202.00	466.55
1203.00	449.38
1204.00	424.42
1205.00	431.44
1206.00	446.26
1207.00	429.88
1208.00	401.01
1209.00	389.31
1210.00	418.18
1211.00	445.48
1212.00	453.28
1213.00	425.98
1214.00	396.33
1215.00	405.69
1216.00	409.59
1217.00	425.20
1218.00	405.69
1219.00	419.74
1220.00	404.91
1221.00	404.13
1222.00	383.85
1223.00	398.67
1224.00	398.67
1225.00	433.78
1226.00	421.30
1227.00	433.78
1228.00	408.03
1229.00	393.21
1230.00	399.45
1231.00	424.42
1232.00	443.14
1233.00	455.62
1234.00	431.44
1235.00	433.00
1236.00	410.37
1237.00	415.84
1238.00	395.55
1239.00	417.40
1240.00	417.40
1241.00	404.91
1242.00	397.89
1243.00	424.42
1244.00	445.48
1245.00	435.34
1246.00	426.76
1247.00	412.71
1248.00	390.09
1249.00	363.56
1250.00	382.29
1251.00	407.25
1252.00	407.25
1253.00	383.85
1254.00	386.97
1255.00	372.93
1256.00	390.09
1257.00	378.39
1258.00	397.89
1259.00	390.09
1260.00	402.57
1261.00	397.89
1262.00	422.86
1263.00	425.20
1264.00	425.20
1265.00	409.59
1266.00	408.03
1267.00	399.45
1268.00	401.01
1269.00	404.13
1270.00	426.76
1271.00	419.74
1272.00	389.31
1273.00	383.07
1274.00	410.37
1275.00	445.48
1276.00	429.10
1277.00	423.64
1278.00	412.71
1279.00	432.22
1280.00	420.52
1281.00	435.34
1282.00	431.44
1283.00	449.38
1284.00	422.08
1285.00	423.64
1286.00	403.35
1287.00	425.98
1288.00	461.87
1289.00	459.53
1290.00	418.96
1291.00	386.19
1292.00	384.63
1293.00	399.45
1294.00	387.75
1295.00	393.99
1296.00	401.79
1297.00	391.65
1298.00	377.61
1299.00	386.97
1300.00	408.03
1301.00	419.74
1302.00	413.49
1303.00	419.74
1304.00	423.64
1305.00	425.20
1306.00	417.40
1307.00	428.32
1308.00	425.20
1309.00	420.52
1310.00	394.77
1311.00	376.83
1312.00	384.63
1313.00	401.01
1314.00	417.40
1315.00	408.03
1316.00	388.53
1317.00	421.30
1318.00	445.48
1319.00	456.40
1320.00	404.13
1321.00	386.19
1322.00	404.91
1323.00	416.62
1324.00	409.59
1325.00	393.99
1326.00	406.47
1327.00	429.88
1328.00	429.10
1329.00	409.59
1330.00	380.73
1331.00	411.93
1332.00	427.54
1333.00	425.98
1334.00	390.87
1335.00	411.93
1336.00	424.42
1337.00	423.64
1338.00	413.49
1339.00	416.62
1340.00	411.93
1341.00	393.99
1342.00	379.17
1343.00	381.51
1344.00	372.93
1345.00	389.31
1346.00	399.45
1347.00	410.37
1348.00	408.03
1349.00	409.59
1350.00	417.40
1351.00	443.14
1352.00	457.18
1353.00	450.94
1354.00	429.88
1355.00	415.06
1356.00	420.52
1357.00	414.27
1358.00	401.79
1359.00	395.55
1360.00	362.00
1361.00	373.71
1362.00	372.93
1363.00	390.87
1364.00	402.57
1365.00	391.65
1366.00	401.01
1367.00	407.25
1368.00	437.68
1369.00	437.68
1370.00	411.15
1371.00	386.19
1372.00	397.89
1373.00	404.13
1374.00	425.20
1375.00	423.64
1376.00	430.66
1377.00	408.81
1378.00	376.05
1379.00	378.39
1380.00	401.01
1381.00	425.98
1382.00	411.93
1383.00	381.51
1384.00	369.80
1385.00	358.10
1386.00	379.95
1387.00	383.85
1388.00	404.13
1389.00	408.81
1390.00	440.80
1391.00	437.68
1392.00	417.40
1393.00	376.05
1394.00	398.67
1395.00	400.23
1396.00	436.12
1397.00	429.10
1398.00	437.68
1399.00	422.86
1400.00	409.59
1401.00	393.21
1402.00	401.01
1403.00	386.19
1404.00	408.81
1405.00	396.33
1406.00	415.06
1407.00	394.77
1408.00	397.11
1409.00	379.17
1410.00	389.31
1411.00	403.35
1412.00	418.96
1413.00	422.08
1414.00	413.49
1415.00	425.20
1416.00	420.52
1417.00	412.71
1418.00	421.30
1419.00	432.22
1420.00	431.44
1421.00	397.11
1422.00	372.15
1423.00	366.68
1424.00	371.36
1425.00	393.99
1426.00	411.93
1427.00	391.65
1428.00	372.93
1429.00	386.19
1430.00	438.46
1431.00	450.94
1432.00	429.88
1433.00	401.79
1434.00	423.64
1435.00	422.08
1436.00	438.46
1437.00	435.34
1438.00	432.22
1439.00	411.93
1440.00	393.21
1441.00	409.59
1442.00	422.86
1443.00	429.10
1444.00	404.13
1445.00	377.61
1446.00	372.93
1447.00	384.63
1448.00	398.67
1449.00	409.59
1450.00	400.23
1451.00	399.45
1452.00	386.97
1453.00	409.59
1454.00	423.64
1455.00	421.30
1456.00	408.81
1457.00	380.73
1458.00	425.98
1459.00	417.40
1460.00	436.90
1461.00	391.65
1462.00	407.25
1463.00	393.21
1464.00	390.87
1465.00	397.89
1466.00	401.01
1467.00	420.52
1468.00	411.15
1469.00	409.59
1470.00	398.67
1471.00	399.45
1472.00	400.23
1473.00	394.77
1474.00	389.31
1475.00	411.15
1476.00	410.37
1477.00	411.93
1478.00	401.79
1479.00	404.91
1480.00	383.85
1481.00	380.73
1482.00	370.58
1483.00	382.29
1484.00	385.41
1485.00	400.23
1486.00	410.37
1487.00	411.15
1488.00	396.33
1489.00	404.13
1490.00	398.67
1491.00	401.01
1492.00	378.39
1493.00	378.39
1494.00	385.41
1495.00	396.33
1496.00	402.57
1497.00	388.53
1498.00	404.13
1499.00	376.05
1500.00	383.07
1501.00	359.66
1502.00	376.83
1503.00	384.63
1504.00	384.63
1505.00	397.11
1506.00	411.15
1507.00	384.63
1508.00	369.80
1509.00	334.70
1510.00	369.02
1511.00	386.19
1512.00	404.13
1513.00	401.01
1514.00	422.86
1515.00	425.98
1516.00	423.64
1517.00	379.17
1518.00	387.75
1519.00	356.54
1520.00	364.34
1521.00	357.32
1522.00	424.42
1523.00	422.86
1524.00	422.86
1525.00	390.87
1526.00	400.23
1527.00	401.01
1528.00	411.15
1529.00	407.25
1530.00	387.75
1531.00	376.83
1532.00	377.61
1533.00	414.27
1534.00	430.66
1535.00	424.42
1536.00	419.74
1537.00	399.45
1538.00	415.06
1539.00	386.19
1540.00	376.05
1541.00	385.41
1542.00	399.45
1543.00	418.18
1544.00	396.33
1545.00	403.35
1546.00	398.67
1547.00	402.57
1548.00	398.67
1549.00	403.35
1550.00	390.87
1551.00	390.87
1552.00	379.95
1553.00	387.75
1554.00	379.17
1555.00	377.61
1556.00	379.95
1557.00	379.95
1558.00	380.73
1559.00	399.45
1560.00	409.59
1561.00	383.07
1562.00	372.93
1563.00	404.13
1564.00	430.66
1565.00	424.42
1566.00	367.46
1567.00	378.39
1568.00	340.16
1569.00	350.30
1570.00	377.61
1571.00	433.00
1572.00	413.49
1573.00	364.34
1574.00	347.96
1575.00	373.71
1576.00	388.53
1577.00	391.65
1578.00	379.95
1579.00	393.21
1580.00	401.79
1581.00	446.26
1582.00	443.14
1583.00	415.84
1584.00	388.53
1585.00	385.41
1586.00	413.49
1587.00	423.64
1588.00	403.35
1589.00	383.07
1590.00	385.41
1591.00	395.55
1592.00	422.86
1593.00	417.40
1594.00	429.10
1595.00	408.03
1596.00	421.30
1597.00	425.20
1598.00	415.84
1599.00	408.03
1600.00	401.01
1601.00	398.67
1602.00	383.85
1603.00	355.76
1604.00	357.32
1605.00	347.96
1606.00	375.27
1607.00	383.07
1608.00	384.63
1609.00	383.85
1610.00	384.63
1611.00	389.31
1612.00	404.91
1613.00	420.52
1614.00	410.37
1615.00	374.49
1616.00	379.17
1617.00	379.95
1618.00	415.06
1619.00	386.97
1620.00	405.69
1621.00	399.45
1622.00	440.02
1623.00	432.22
1624.00	440.80
1625.00	398.67
1626.00	396.33
1627.00	369.02
1628.00	374.49
1629.00	375.27
1630.00	379.17
1631.00	376.83
1632.00	382.29
1633.00	396.33
1634.00	400.23
1635.00	421.30
1636.00	405.69
1637.00	429.10
1638.00	391.65
1639.00	398.67
1640.00	354.98
1641.00	351.86
1642.00	344.06
1643.00	361.22
1644.00	384.63
1645.00	406.47
1646.00	394.77
1647.00	406.47
1648.00	404.91
1649.00	414.27
1650.00	404.91
1651.00	395.55
1652.00	403.35
1653.00	406.47
1654.00	408.03
1655.00	411.93
1656.00	408.81
1657.00	422.08
1658.00	397.89
1659.00	396.33
1660.00	371.36
1661.00	411.93
1662.00	399.45
1663.00	432.22
1664.00	443.92
1665.00	431.44
1666.00	409.59
1667.00	379.95
1668.00	379.17
1669.00	371.36
1670.00	373.71
1671.00	401.01
1672.00	404.91
1673.00	405.69
1674.00	376.05
1675.00	393.99
1676.00	390.87
1677.00	418.18
1678.00	403.35
1679.00	394.77
1680.00	408.03
1681.00	418.96
1682.00	440.80
1683.00	447.04
1684.00	458.75
1685.00	522.72
1686.00	639.75
1687.00	847.27
1688.00	1066.50
1689.00	1269.35
1690.00	1407.44
1691.00	1419.92
1692.00	1327.08
1693.00	1086.01
1694.00	875.36
1695.00	646.77
1696.00	534.42
1697.00	452.50
1698.00	452.50
1699.00	452.50
1700.00	429.88
1701.00	411.93
1702.00	404.13
1703.00	427.54
1704.00	395.55
1705.00	394.77
1706.00	399.45
1707.00	429.88
1708.00	414.27
1709.00	379.95
1710.00	361.22
1711.00	376.05
1712.00	371.36
1713.00	392.43
1714.00	376.83
1715.00	380.73
1716.00	383.07
1717.00	382.29
1718.00	403.35
1719.00	393.99
1720.00	408.03
1721.00	420.52
1722.00	416.62
1723.00	423.64
1724.00	396.33
1725.00	377.61
1726.00	373.71
1727.00	370.58
1728.00	397.89
1729.00	379.95
1730.00	401.01
1731.00	413.49
1732.00	424.42
1733.00	416.62
1734.00	398.67
1735.00	414.27
1736.00	414.27
1737.00	419.74
1738.00	403.35
1739.00	379.95
1740.00	374.49
1741.00	369.80
1742.00	377.61
1743.00	381.51
1744.00	372.15
1745.00	397.89
1746.00	403.35
1747.00	417.40
1748.00	390.09
1749.00	380.73
1750.00	380.73
1751.00	389.31
1752.00	395.55
1753.00	384.63
1754.00	401.79
1755.00	409.59
1756.00	443.92
1757.00	436.90
1758.00	424.42
1759.00	393.99
1760.00	368.24
1761.00	371.36
1762.00	385.41
1763.00	425.20
1764.00	422.08
1765.00	405.69
1766.00	376.05
1767.00	356.54
1768.00	377.61
1769.00	385.41
1770.00	405.69
1771.00	421.30
1772.00	432.22
1773.00	437.68
1774.00	425.20
1775.00	421.30
1776.00	405.69
1777.00	373.71
1778.00	371.36
1779.00	382.29
1780.00	410.37
1781.00	404.13
1782.00	404.91
1783.00	397.89
1784.00	412.71
1785.00	416.62
1786.00	388.53
1787.00	367.46
1788.00	364.34
1789.00	403.35
1790.00	421.30
1791.00	446.26
1792.00	433.78
1793.00	431.44
1794.00	424.42
1795.00	409.59
1796.00	419.74
1797.00	413.49
1798.00	422.86
1799.00	413.49
1800.00	397.11
1801.00	407.25
1802.00	411.93
1803.00	423.64
1804.00	421.30
1805.00	429.10
1806.00	413.49
1807.00	421.30
1808.00	392.43
1809.00	399.45
1810.00	378.39
1811.00	386.97
1812.00	411.15
1813.00	417.40
1814.00	426.76
1815.00	409.59
1816.00	419.74
1817.00	401.79
1818.00	415.06
1819.00	392.43
1820.00	403.35
1821.00	376.83
1822.00	380.73
1823.00	392.43
1824.00	396.33
1825.00	410.37
1826.00	397.89
1827.00	404.13
1828.00	414.27
1829.00	413.49
1830.00	418.96
1831.00	394.77
1832.00	399.45
1833.00	376.83
1834.00	399.45
1835.00	416.62
1836.00	429.10
1837.00	425.98
1838.00	401.01
1839.00	393.99
1840.00	385.41
1841.00	370.58
1842.00	393.99
1843.00	387.75
1844.00	412.71
1845.00	394.77
1846.00	393.21
1847.00	401.01
1848.00	397.89
1849.00	410.37
1850.00	362.78
1851.00	351.08
1852.00	345.62
1853.00	370.58
1854.00	368.24
1855.00	372.15
1856.00	377.61
1857.00	411.15
1858.00	411.93
1859.00	413.49
1860.00	390.09
1861.00	407.25
1862.00	403.35
1863.00	415.84
1864.00	390.87
1865.00	390.09
1866.00	397.11
1867.00	393.21
1868.00	399.45
1869.00	397.11
1870.00	397.89
1871.00	379.17
1872.00	392.43
1873.00	390.87
1874.00	417.40
1875.00	410.37
1876.00	408.03
1877.00	381.51
1878.00	347.18
1879.00	344.06
1880.00	396.33
1881.00	435.34
1882.00	431.44
1883.00	389.31
1884.00	356.54
1885.00	398.67
1886.00	413.49
1887.00	418.96
1888.00	383.07
1889.00	376.83
1890.00	379.17
1891.00	390.09
1892.00	369.80
1893.00	377.61
1894.00	354.20
1895.00	379.95
1896.00	365.90
1897.00	390.87
1898.00	368.24
1899.00	365.90
1900.00	368.24
1901.00	367.46
1902.00	385.41
1903.00	390.87
1904.00	382.29
1905.00	386.19
1906.00	372.15
1907.00	392.43
1908.00	409.59
1909.00	427.54
1910.00	425.98
1911.00	411.15
1912.00	378.39
1913.00	393.21
1914.00	407.25
1915.00	433.78
1916.00	440.80
1917.00	430.66
1918.00	433.78
1919.00	450.94
1920.00	451.72
1921.00	437.68
1922.00	397.11
1923.00	368.24
1924.00	378.39
1925.00	397.11
1926.00	403.35
1927.00	382.29
1928.00	359.66
1929.00	370.58
1930.00	379.95
1931.00	372.93
1932.00	364.34
1933.00	372.15
1934.00	408.03
1935.00	412.71
1936.00	403.35
1937.00	379.95
1938.00	393.99
1939.00	404.91
1940.00	404.13
1941.00	364.34
1942.00	354.98
1943.00	365.12
1944.00	383.85
1945.00	377.61
1946.00	376.83
1947.00	398.67
1948.00	385.41
1949.00	385.41
1950.00	340.94
1951.00	346.40
1952.00	351.86
1953.00	393.99
1954.00	411.15
1955.00	395.55
1956.00	381.51
1957.00	382.29
1958.00	372.15
1959.00	394.77
1960.00	393.21
1961.00	396.33
1962.00	365.90
1963.00	358.88
1964.00	374.49
1965.00	379.95
1966.00	386.19
1967.00	383.07
1968.00	374.49
1969.00	372.93
1970.00	364.34
1971.00	404.13
1972.00	398.67
1973.00	424.42
1974.00	379.95
1975.00	369.80
1976.00	354.98
1977.00	365.12
1978.00	370.58
1979.00	365.12
1980.00	381.51
1981.00	395.55
1982.00	393.21
1983.00	364.34
1984.00	376.05
1985.00	379.95
1986.00	398.67
1987.00	400.23
1988.00	428.32
1989.00	427.54
1990.00	396.33
1991.00	375.27
1992.00	352.64
1993.00	372.15
1994.00	367.46
1995.00	376.83
1996.00	339.38
1997.00	345.62
1998.00	355.76
1999.00	383.85
2000.00	378.39
2001.00	382.29
2002.00	429.88
2003.00	454.06
2004.00	433.78
2005.00	369.02
2006.00	331.58
2007.00	363.56
2008.00	386.19
2009.00	417.40
2010.00	390.09
2011.00	398.67
2012.00	379.95
2013.00	397.11
2014.00	391.65
2015.00	390.87
2016.00	391.65
2017.00	397.89
2018.00	376.05
2019.00	381.51
2020.00	390.09
2021.00	422.08
2022.00	407.25
2023.00	361.22
2024.00	354.20
2025.00	366.68
2026.00	379.17
2027.00	351.08
2028.00	319.09
2029.00	332.36
2030.00	366.68
2031.00	396.33
2032.00	422.08
2033.00	432.22
2034.00	440.80
2035.00	380.73
2036.00	361.22
2037.00	358.10
2038.00	388.53
2039.00	375.27
2040.00	349.52
2041.00	328.46
2042.00	376.05
2043.00	392.43
2044.00	433.78
2045.00	412.71
2046.00	418.96
2047.00	404.91
>>>>>End Processed Spectral Data<<<<<
