SpectraSuite Data File
++++++++++++++++++++++++++++++++++++
Date: Thu Nov 16 14:27:21 EST 2017
User: cheriyan
Dark Spectrum Present: No
Reference Spectrum Present: No
Number of Sampled Component Spectra: 1
Spectrometers: USB2+H05261
Integration Time (usec): 100000 (USB2+H05261)
Spectra Averaged: 1 (USB2+H05261)
Boxcar Smoothing: 1 (USB2+H05261)
Correct for Electrical Dark: No (USB2+H05261)
Strobe/Lamp Enabled: No (USB2+H05261)
Correct for Detector Non-linearity: No (USB2+H05261)
Correct for Stray Light: No (USB2+H05261)
Number of Pixels in Processed Spectrum: 2048
>>>>>Begin Processed Spectral Data<<<<<
0.00	285.55
1.00	285.55
2.00	268.38
3.00	269.94
4.00	250.44
5.00	243.42
6.00	237.95
7.00	236.39
8.00	231.71
9.00	204.41
10.00	214.55
11.00	219.23
12.00	234.83
13.00	206.75
14.00	212.21
15.00	210.65
16.00	224.69
17.00	237.17
18.00	237.17
19.00	243.42
20.00	225.47
21.00	232.49
22.00	265.26
23.00	294.91
24.00	297.25
25.00	289.45
26.00	302.71
27.00	348.74
28.00	373.71
29.00	383.85
30.00	347.96
31.00	334.70
32.00	340.94
33.00	364.34
34.00	390.09
35.00	362.00
36.00	360.44
37.00	344.84
38.00	360.44
39.00	377.61
40.00	399.45
41.00	425.98
42.00	416.62
43.00	419.74
44.00	414.27
45.00	432.22
46.00	404.91
47.00	397.11
48.00	385.41
49.00	383.07
50.00	386.97
51.00	404.91
52.00	417.40
53.00	405.69
54.00	391.65
55.00	392.43
56.00	392.43
57.00	393.21
58.00	372.15
59.00	383.85
60.00	388.53
61.00	387.75
62.00	368.24
63.00	378.39
64.00	404.13
65.00	425.20
66.00	386.19
67.00	369.80
68.00	354.98
69.00	370.58
70.00	388.53
71.00	410.37
72.00	404.91
73.00	376.05
74.00	369.80
75.00	354.20
76.00	355.76
77.00	358.10
78.00	402.57
79.00	425.98
80.00	404.91
81.00	375.27
82.00	358.10
83.00	347.96
84.00	346.40
85.00	371.36
86.00	393.21
87.00	399.45
88.00	392.43
89.00	404.13
90.00	391.65
91.00	375.27
92.00	333.92
93.00	334.70
94.00	354.20
95.00	374.49
96.00	382.29
97.00	369.80
98.00	389.31
99.00	390.87
100.00	401.01
101.00	385.41
102.00	401.79
103.00	397.89
104.00	412.71
105.00	407.25
106.00	399.45
107.00	383.07
108.00	383.07
109.00	394.77
110.00	386.19
111.00	384.63
112.00	398.67
113.00	403.35
114.00	394.77
115.00	379.17
116.00	397.11
117.00	405.69
118.00	394.77
119.00	386.19
120.00	376.83
121.00	390.09
122.00	390.09
123.00	393.21
124.00	418.18
125.00	408.81
126.00	397.11
127.00	355.76
128.00	376.83
129.00	372.93
130.00	393.21
131.00	381.51
132.00	378.39
133.00	375.27
134.00	370.58
135.00	408.03
136.00	393.21
137.00	412.71
138.00	383.07
139.00	374.49
140.00	354.20
141.00	362.78
142.00	384.63
143.00	397.11
144.00	388.53
145.00	376.83
146.00	379.17
147.00	386.97
148.00	390.87
149.00	373.71
150.00	393.99
151.00	397.11
152.00	426.76
153.00	417.40
154.00	425.98
155.00	393.99
156.00	411.93
157.00	398.67
158.00	412.71
159.00	367.46
160.00	358.10
161.00	343.28
162.00	379.17
163.00	381.51
164.00	406.47
165.00	387.75
166.00	420.52
167.00	417.40
168.00	428.32
169.00	418.96
170.00	408.81
171.00	396.33
172.00	369.80
173.00	369.80
174.00	374.49
175.00	404.91
176.00	410.37
177.00	413.49
178.00	384.63
179.00	396.33
180.00	404.91
181.00	406.47
182.00	389.31
183.00	369.80
184.00	383.07
185.00	373.71
186.00	376.05
187.00	365.12
188.00	376.05
189.00	390.09
190.00	414.27
191.00	396.33
192.00	362.78
193.00	319.09
194.00	341.72
195.00	366.68
196.00	404.13
197.00	386.97
198.00	397.89
199.00	372.93
200.00	390.09
201.00	388.53
202.00	395.55
203.00	369.02
204.00	360.44
205.00	390.09
206.00	437.68
207.00	450.94
208.00	439.24
209.00	428.32
210.00	415.06
211.00	408.81
212.00	404.91
213.00	415.84
214.00	412.71
215.00	411.15
216.00	414.27
217.00	418.18
218.00	420.52
219.00	411.15
220.00	399.45
221.00	393.99
222.00	401.79
223.00	410.37
224.00	402.57
225.00	407.25
226.00	428.32
227.00	415.84
228.00	381.51
229.00	354.98
230.00	368.24
231.00	381.51
232.00	377.61
233.00	404.13
234.00	404.91
235.00	415.84
236.00	386.97
237.00	403.35
238.00	408.81
239.00	418.96
240.00	415.84
241.00	427.54
242.00	423.64
243.00	384.63
244.00	350.30
245.00	342.50
246.00	379.17
247.00	411.93
248.00	398.67
249.00	382.29
250.00	368.24
251.00	379.17
252.00	390.87
253.00	390.87
254.00	386.19
255.00	378.39
256.00	376.05
257.00	394.77
258.00	413.49
259.00	442.36
260.00	422.86
261.00	426.76
262.00	411.93
263.00	435.34
264.00	433.00
265.00	424.42
266.00	397.11
267.00	420.52
268.00	428.32
269.00	438.46
270.00	396.33
271.00	379.95
272.00	375.27
273.00	366.68
274.00	372.93
275.00	394.77
276.00	386.19
277.00	389.31
278.00	382.29
279.00	405.69
280.00	396.33
281.00	399.45
282.00	411.15
283.00	428.32
284.00	425.20
285.00	412.71
286.00	412.71
287.00	416.62
288.00	410.37
289.00	399.45
290.00	374.49
291.00	383.07
292.00	375.27
293.00	405.69
294.00	390.09
295.00	395.55
296.00	376.05
297.00	374.49
298.00	371.36
299.00	383.07
300.00	391.65
301.00	381.51
302.00	362.00
303.00	361.22
304.00	367.46
305.00	355.76
306.00	362.78
307.00	375.27
308.00	411.93
309.00	436.12
310.00	418.18
311.00	413.49
312.00	387.75
313.00	397.89
314.00	365.12
315.00	356.54
316.00	343.28
317.00	363.56
318.00	378.39
319.00	393.21
320.00	374.49
321.00	366.68
322.00	347.96
323.00	358.88
324.00	369.02
325.00	393.21
326.00	412.71
327.00	436.12
328.00	408.81
329.00	413.49
330.00	386.19
331.00	408.81
332.00	390.87
333.00	381.51
334.00	390.87
335.00	402.57
336.00	413.49
337.00	419.74
338.00	418.18
339.00	415.84
340.00	416.62
341.00	440.02
342.00	430.66
343.00	424.42
344.00	410.37
345.00	429.10
346.00	430.66
347.00	415.84
348.00	402.57
349.00	383.07
350.00	372.93
351.00	368.24
352.00	388.53
353.00	427.54
354.00	439.24
355.00	438.46
356.00	400.23
357.00	405.69
358.00	398.67
359.00	422.08
360.00	430.66
361.00	424.42
362.00	400.23
363.00	394.77
364.00	395.55
365.00	398.67
366.00	353.42
367.00	367.46
368.00	412.71
369.00	465.77
370.00	470.45
371.00	450.94
372.00	406.47
373.00	400.23
374.00	372.15
375.00	365.90
376.00	351.08
377.00	353.42
378.00	381.51
379.00	404.91
380.00	433.00
381.00	445.48
382.00	430.66
383.00	411.93
384.00	378.39
385.00	382.29
386.00	399.45
387.00	424.42
388.00	404.13
389.00	393.99
390.00	421.30
391.00	438.46
392.00	428.32
393.00	430.66
394.00	447.04
395.00	473.57
396.00	436.90
397.00	417.40
398.00	370.58
399.00	359.66
400.00	366.68
401.00	382.29
402.00	393.21
403.00	383.85
404.00	386.19
405.00	398.67
406.00	394.77
407.00	377.61
408.00	365.90
409.00	376.05
410.00	407.25
411.00	415.84
412.00	390.87
413.00	358.88
414.00	340.94
415.00	370.58
416.00	399.45
417.00	396.33
418.00	395.55
419.00	399.45
420.00	411.15
421.00	422.86
422.00	408.03
423.00	401.79
424.00	387.75
425.00	401.01
426.00	404.91
427.00	412.71
428.00	403.35
429.00	403.35
430.00	390.09
431.00	400.23
432.00	392.43
433.00	384.63
434.00	400.23
435.00	428.32
436.00	419.74
437.00	406.47
438.00	408.03
439.00	427.54
440.00	414.27
441.00	403.35
442.00	377.61
443.00	377.61
444.00	382.29
445.00	416.62
446.00	412.71
447.00	407.25
448.00	406.47
449.00	416.62
450.00	380.73
451.00	378.39
452.00	394.77
453.00	429.10
454.00	416.62
455.00	409.59
456.00	432.22
457.00	449.38
458.00	433.78
459.00	411.15
460.00	401.01
461.00	419.74
462.00	404.13
463.00	400.23
464.00	360.44
465.00	381.51
466.00	383.85
467.00	432.22
468.00	440.80
469.00	421.30
470.00	396.33
471.00	383.85
472.00	391.65
473.00	411.15
474.00	393.99
475.00	413.49
476.00	395.55
477.00	425.98
478.00	406.47
479.00	410.37
480.00	401.01
481.00	424.42
482.00	429.88
483.00	415.84
484.00	408.81
485.00	380.73
486.00	389.31
487.00	393.99
488.00	411.93
489.00	411.15
490.00	383.85
491.00	385.41
492.00	387.75
493.00	397.11
494.00	416.62
495.00	403.35
496.00	422.86
497.00	415.84
498.00	427.54
499.00	409.59
500.00	388.53
501.00	395.55
502.00	401.01
503.00	423.64
504.00	402.57
505.00	408.81
506.00	446.26
507.00	472.79
508.00	507.12
509.00	487.61
510.00	492.29
511.00	465.77
512.00	452.50
513.00	481.37
514.00	466.55
515.00	452.50
516.00	395.55
517.00	408.03
518.00	413.49
519.00	404.13
520.00	380.73
521.00	362.78
522.00	390.87
523.00	401.79
524.00	408.03
525.00	395.55
526.00	403.35
527.00	422.08
528.00	438.46
529.00	425.98
530.00	429.10
531.00	399.45
532.00	404.13
533.00	403.35
534.00	426.76
535.00	427.54
536.00	426.76
537.00	443.92
538.00	451.72
539.00	448.60
540.00	416.62
541.00	417.40
542.00	408.81
543.00	404.91
544.00	398.67
545.00	394.77
546.00	417.40
547.00	437.68
548.00	434.56
549.00	416.62
550.00	389.31
551.00	396.33
552.00	383.85
553.00	396.33
554.00	393.99
555.00	429.88
556.00	436.12
557.00	455.62
558.00	434.56
559.00	436.90
560.00	389.31
561.00	380.73
562.00	376.83
563.00	418.18
564.00	433.00
565.00	432.22
566.00	420.52
567.00	422.08
568.00	407.25
569.00	400.23
570.00	377.61
571.00	405.69
572.00	409.59
573.00	447.04
574.00	430.66
575.00	426.76
576.00	379.95
577.00	364.34
578.00	389.31
579.00	414.27
580.00	415.06
581.00	384.63
582.00	382.29
583.00	402.57
584.00	418.96
585.00	447.82
586.00	433.00
587.00	431.44
588.00	414.27
589.00	436.12
590.00	409.59
591.00	401.79
592.00	387.75
593.00	404.91
594.00	406.47
595.00	398.67
596.00	422.86
597.00	420.52
598.00	418.96
599.00	415.06
600.00	447.04
601.00	440.80
602.00	432.22
603.00	416.62
604.00	401.01
605.00	396.33
606.00	399.45
607.00	408.03
608.00	409.59
609.00	402.57
610.00	418.96
611.00	411.15
612.00	383.85
613.00	383.07
614.00	384.63
615.00	376.05
616.00	404.13
617.00	408.03
618.00	427.54
619.00	406.47
620.00	385.41
621.00	388.53
622.00	372.93
623.00	383.07
624.00	378.39
625.00	388.53
626.00	392.43
627.00	395.55
628.00	396.33
629.00	419.74
630.00	441.58
631.00	454.84
632.00	428.32
633.00	441.58
634.00	461.09
635.00	531.30
636.00	631.16
637.00	720.89
638.00	758.33
639.00	679.54
640.00	608.54
641.00	529.74
642.00	506.34
643.00	459.53
644.00	473.57
645.00	436.90
646.00	443.14
647.00	422.86
648.00	449.38
649.00	428.32
650.00	410.37
651.00	386.97
652.00	364.34
653.00	358.10
654.00	409.59
655.00	443.92
656.00	452.50
657.00	397.11
658.00	415.06
659.00	416.62
660.00	441.58
661.00	412.71
662.00	409.59
663.00	394.77
664.00	405.69
665.00	425.20
666.00	415.84
667.00	390.87
668.00	362.78
669.00	370.58
670.00	401.79
671.00	422.86
672.00	433.00
673.00	424.42
674.00	428.32
675.00	446.26
676.00	439.24
677.00	446.26
678.00	447.82
679.00	498.53
680.00	497.75
681.00	463.43
682.00	437.68
683.00	404.13
684.00	408.03
685.00	385.41
686.00	385.41
687.00	370.58
688.00	380.73
689.00	414.27
690.00	437.68
691.00	438.46
692.00	427.54
693.00	422.08
694.00	418.96
695.00	407.25
696.00	413.49
697.00	414.27
698.00	423.64
699.00	435.34
700.00	433.78
701.00	422.08
702.00	404.13
703.00	399.45
704.00	403.35
705.00	428.32
706.00	410.37
707.00	421.30
708.00	404.13
709.00	428.32
710.00	421.30
711.00	409.59
712.00	399.45
713.00	403.35
714.00	391.65
715.00	418.96
716.00	406.47
717.00	410.37
718.00	439.24
719.00	442.36
720.00	463.43
721.00	418.96
722.00	423.64
723.00	435.34
724.00	465.77
725.00	500.09
726.00	499.31
727.00	465.77
728.00	407.25
729.00	401.79
730.00	407.25
731.00	423.64
732.00	409.59
733.00	393.99
734.00	386.97
735.00	376.83
736.00	372.93
737.00	407.25
738.00	412.71
739.00	425.20
740.00	413.49
741.00	433.78
742.00	445.48
743.00	478.25
744.00	462.65
745.00	482.93
746.00	450.94
747.00	439.24
748.00	392.43
749.00	379.17
750.00	399.45
751.00	394.77
752.00	399.45
753.00	382.29
754.00	397.11
755.00	396.33
756.00	419.74
757.00	429.88
758.00	431.44
759.00	417.40
760.00	408.03
761.00	370.58
762.00	386.97
763.00	406.47
764.00	451.72
765.00	433.78
766.00	406.47
767.00	368.24
768.00	365.90
769.00	378.39
770.00	389.31
771.00	389.31
772.00	381.51
773.00	380.73
774.00	369.80
775.00	367.46
776.00	377.61
777.00	383.07
778.00	398.67
779.00	404.91
780.00	408.03
781.00	416.62
782.00	410.37
783.00	483.71
784.00	478.25
785.00	471.23
786.00	429.10
787.00	409.59
788.00	402.57
789.00	386.97
790.00	407.25
791.00	436.90
792.00	455.62
793.00	425.98
794.00	428.32
795.00	405.69
796.00	415.84
797.00	376.83
798.00	376.05
799.00	401.79
800.00	428.32
801.00	426.76
802.00	418.96
803.00	407.25
804.00	381.51
805.00	360.44
806.00	358.10
807.00	378.39
808.00	401.79
809.00	423.64
810.00	422.08
811.00	411.93
812.00	378.39
813.00	394.77
814.00	405.69
815.00	429.10
816.00	387.75
817.00	357.32
818.00	369.80
819.00	377.61
820.00	383.07
821.00	386.97
822.00	407.25
823.00	413.49
824.00	370.58
825.00	350.30
826.00	357.32
827.00	395.55
828.00	404.13
829.00	401.79
830.00	380.73
831.00	394.77
832.00	413.49
833.00	422.08
834.00	431.44
835.00	392.43
836.00	400.23
837.00	393.99
838.00	394.77
839.00	378.39
840.00	354.98
841.00	359.66
842.00	384.63
843.00	415.84
844.00	446.26
845.00	422.08
846.00	403.35
847.00	394.77
848.00	408.81
849.00	422.08
850.00	419.74
851.00	417.40
852.00	411.93
853.00	414.27
854.00	403.35
855.00	390.87
856.00	368.24
857.00	351.08
858.00	353.42
859.00	358.88
860.00	403.35
861.00	411.15
862.00	413.49
863.00	395.55
864.00	405.69
865.00	420.52
866.00	436.12
867.00	434.56
868.00	436.90
869.00	432.22
870.00	422.08
871.00	431.44
872.00	413.49
873.00	416.62
874.00	414.27
875.00	416.62
876.00	436.90
877.00	417.40
878.00	411.93
879.00	397.11
880.00	404.91
881.00	414.27
882.00	413.49
883.00	427.54
884.00	429.88
885.00	422.08
886.00	393.99
887.00	382.29
888.00	395.55
889.00	416.62
890.00	442.36
891.00	450.94
892.00	471.23
893.00	451.72
894.00	417.40
895.00	390.87
896.00	389.31
897.00	411.15
898.00	402.57
899.00	426.76
900.00	404.91
901.00	422.86
902.00	384.63
903.00	398.67
904.00	392.43
905.00	418.96
906.00	417.40
907.00	415.06
908.00	409.59
909.00	755.21
910.00	774.72
911.00	776.28
912.00	437.68
913.00	403.35
914.00	405.69
915.00	390.87
916.00	393.99
917.00	397.89
918.00	416.62
919.00	412.71
920.00	404.13
921.00	382.29
922.00	389.31
923.00	409.59
924.00	429.88
925.00	442.36
926.00	420.52
927.00	386.97
928.00	389.31
929.00	373.71
930.00	403.35
931.00	372.93
932.00	364.34
933.00	376.05
934.00	393.21
935.00	411.15
936.00	403.35
937.00	394.77
938.00	405.69
939.00	406.47
940.00	440.02
941.00	461.87
942.00	461.09
943.00	451.72
944.00	441.58
945.00	453.28
946.00	433.78
947.00	441.58
948.00	422.86
949.00	412.71
950.00	394.77
951.00	406.47
952.00	408.03
953.00	407.25
954.00	388.53
955.00	404.91
956.00	412.71
957.00	414.27
958.00	413.49
959.00	372.15
960.00	359.66
961.00	373.71
962.00	418.18
963.00	443.14
964.00	423.64
965.00	429.10
966.00	427.54
967.00	442.36
968.00	404.91
969.00	392.43
970.00	396.33
971.00	405.69
972.00	399.45
973.00	384.63
974.00	377.61
975.00	408.03
976.00	403.35
977.00	420.52
978.00	396.33
979.00	403.35
980.00	383.07
981.00	393.99
982.00	369.02
983.00	404.13
984.00	383.07
985.00	415.06
986.00	372.93
987.00	375.27
988.00	354.98
989.00	372.15
990.00	376.83
991.00	366.68
992.00	372.15
993.00	377.61
994.00	387.75
995.00	381.51
996.00	386.97
997.00	384.63
998.00	393.99
999.00	383.85
1000.00	398.67
1001.00	393.99
1002.00	400.23
1003.00	409.59
1004.00	425.98
1005.00	436.90
1006.00	456.40
1007.00	448.60
1008.00	434.56
1009.00	417.40
1010.00	442.36
1011.00	459.53
1012.00	427.54
1013.00	372.93
1014.00	349.52
1015.00	377.61
1016.00	391.65
1017.00	406.47
1018.00	387.75
1019.00	399.45
1020.00	390.87
1021.00	403.35
1022.00	391.65
1023.00	380.73
1024.00	390.09
1025.00	405.69
1026.00	437.68
1027.00	426.76
1028.00	431.44
1029.00	409.59
1030.00	403.35
1031.00	403.35
1032.00	453.28
1033.00	457.18
1034.00	438.46
1035.00	394.77
1036.00	373.71
1037.00	376.83
1038.00	362.78
1039.00	357.32
1040.00	380.73
1041.00	372.15
1042.00	420.52
1043.00	415.84
1044.00	450.16
1045.00	461.09
1046.00	481.37
1047.00	462.65
1048.00	450.16
1049.00	431.44
1050.00	432.22
1051.00	390.87
1052.00	392.43
1053.00	416.62
1054.00	419.74
1055.00	386.19
1056.00	375.27
1057.00	407.25
1058.00	421.30
1059.00	429.10
1060.00	391.65
1061.00	380.73
1062.00	362.78
1063.00	386.97
1064.00	394.77
1065.00	430.66
1066.00	415.84
1067.00	405.69
1068.00	365.90
1069.00	349.52
1070.00	352.64
1071.00	358.88
1072.00	372.15
1073.00	413.49
1074.00	436.90
1075.00	462.65
1076.00	440.02
1077.00	410.37
1078.00	409.59
1079.00	427.54
1080.00	457.18
1081.00	445.48
1082.00	429.88
1083.00	413.49
1084.00	403.35
1085.00	376.05
1086.00	393.21
1087.00	398.67
1088.00	463.43
1089.00	458.74
1090.00	480.59
1091.00	456.40
1092.00	432.22
1093.00	429.88
1094.00	378.39
1095.00	397.89
1096.00	402.57
1097.00	435.34
1098.00	422.86
1099.00	422.86
1100.00	408.03
1101.00	405.69
1102.00	401.79
1103.00	418.18
1104.00	396.33
1105.00	398.67
1106.00	380.73
1107.00	381.51
1108.00	361.22
1109.00	372.93
1110.00	383.07
1111.00	393.21
1112.00	417.40
1113.00	428.32
1114.00	436.12
1115.00	432.22
1116.00	413.49
1117.00	390.09
1118.00	367.46
1119.00	402.57
1120.00	424.42
1121.00	431.44
1122.00	442.36
1123.00	450.94
1124.00	453.28
1125.00	425.20
1126.00	399.45
1127.00	379.95
1128.00	389.31
1129.00	401.01
1130.00	426.76
1131.00	408.81
1132.00	395.55
1133.00	385.41
1134.00	385.41
1135.00	376.05
1136.00	379.17
1137.00	404.91
1138.00	438.46
1139.00	442.36
1140.00	434.56
1141.00	421.30
1142.00	411.93
1143.00	439.24
1144.00	444.70
1145.00	451.72
1146.00	440.02
1147.00	443.92
1148.00	445.48
1149.00	443.92
1150.00	429.88
1151.00	450.16
1152.00	405.69
1153.00	423.64
1154.00	416.62
1155.00	450.94
1156.00	431.44
1157.00	426.76
1158.00	393.99
1159.00	406.47
1160.00	387.75
1161.00	411.93
1162.00	430.66
1163.00	457.96
1164.00	477.47
1165.00	462.65
1166.00	448.60
1167.00	439.24
1168.00	448.60
1169.00	441.58
1170.00	428.32
1171.00	426.76
1172.00	437.68
1173.00	425.20
1174.00	405.69
1175.00	385.41
1176.00	418.18
1177.00	394.77
1178.00	431.44
1179.00	436.90
1180.00	476.69
1181.00	477.47
1182.00	472.01
1183.00	471.23
1184.00	454.06
1185.00	428.32
1186.00	432.22
1187.00	429.10
1188.00	425.20
1189.00	420.52
1190.00	410.37
1191.00	433.78
1192.00	422.86
1193.00	410.37
1194.00	402.57
1195.00	406.47
1196.00	429.88
1197.00	450.94
1198.00	450.16
1199.00	446.26
1200.00	440.02
1201.00	450.16
1202.00	450.16
1203.00	450.94
1204.00	437.68
1205.00	441.58
1206.00	408.81
1207.00	404.13
1208.00	408.03
1209.00	429.88
1210.00	430.66
1211.00	451.72
1212.00	465.77
1213.00	472.01
1214.00	449.38
1215.00	403.35
1216.00	392.43
1217.00	400.23
1218.00	422.08
1219.00	409.59
1220.00	389.31
1221.00	386.97
1222.00	418.18
1223.00	436.12
1224.00	427.54
1225.00	408.03
1226.00	376.83
1227.00	371.36
1228.00	387.75
1229.00	375.27
1230.00	402.57
1231.00	404.91
1232.00	412.71
1233.00	388.53
1234.00	381.51
1235.00	393.99
1236.00	424.42
1237.00	427.54
1238.00	446.26
1239.00	426.76
1240.00	420.52
1241.00	422.08
1242.00	436.90
1243.00	468.89
1244.00	454.84
1245.00	449.38
1246.00	421.30
1247.00	411.93
1248.00	397.89
1249.00	403.35
1250.00	419.74
1251.00	444.70
1252.00	441.58
1253.00	440.80
1254.00	415.84
1255.00	422.08
1256.00	420.52
1257.00	429.88
1258.00	410.37
1259.00	420.52
1260.00	404.13
1261.00	411.15
1262.00	412.71
1263.00	417.40
1264.00	415.06
1265.00	406.47
1266.00	410.37
1267.00	414.27
1268.00	424.42
1269.00	411.15
1270.00	400.23
1271.00	385.41
1272.00	415.06
1273.00	422.08
1274.00	417.40
1275.00	416.62
1276.00	422.08
1277.00	450.16
1278.00	467.33
1279.00	457.18
1280.00	455.62
1281.00	428.32
1282.00	439.24
1283.00	428.32
1284.00	444.70
1285.00	436.90
1286.00	418.96
1287.00	413.49
1288.00	410.37
1289.00	399.45
1290.00	392.43
1291.00	412.71
1292.00	429.10
1293.00	440.80
1294.00	412.71
1295.00	411.93
1296.00	395.55
1297.00	413.49
1298.00	418.96
1299.00	411.15
1300.00	389.31
1301.00	382.29
1302.00	409.59
1303.00	438.46
1304.00	450.94
1305.00	433.78
1306.00	429.88
1307.00	396.33
1308.00	390.09
1309.00	399.45
1310.00	432.22
1311.00	432.22
1312.00	423.64
1313.00	402.57
1314.00	421.30
1315.00	393.21
1316.00	405.69
1317.00	370.58
1318.00	390.09
1319.00	375.27
1320.00	393.99
1321.00	396.33
1322.00	397.89
1323.00	391.65
1324.00	386.19
1325.00	415.06
1326.00	447.04
1327.00	466.55
1328.00	503.22
1329.00	475.13
1330.00	461.09
1331.00	445.48
1332.00	487.61
1333.00	493.85
1334.00	464.99
1335.00	429.88
1336.00	422.86
1337.00	404.91
1338.00	408.81
1339.00	396.33
1340.00	395.55
1341.00	392.43
1342.00	409.59
1343.00	401.79
1344.00	418.18
1345.00	407.25
1346.00	414.27
1347.00	358.10
1348.00	358.88
1349.00	356.54
1350.00	389.31
1351.00	390.87
1352.00	401.01
1353.00	395.55
1354.00	398.67
1355.00	408.03
1356.00	429.10
1357.00	454.84
1358.00	447.82
1359.00	439.24
1360.00	410.37
1361.00	423.64
1362.00	434.56
1363.00	438.46
1364.00	425.20
1365.00	423.64
1366.00	424.42
1367.00	455.62
1368.00	457.96
1369.00	468.11
1370.00	440.02
1371.00	435.34
1372.00	414.27
1373.00	433.78
1374.00	437.68
1375.00	444.70
1376.00	417.40
1377.00	408.81
1378.00	413.49
1379.00	416.62
1380.00	402.57
1381.00	399.45
1382.00	409.59
1383.00	428.32
1384.00	429.88
1385.00	403.35
1386.00	383.07
1387.00	355.76
1388.00	362.00
1389.00	398.67
1390.00	406.47
1391.00	420.52
1392.00	393.21
1393.00	417.40
1394.00	435.34
1395.00	454.06
1396.00	442.36
1397.00	426.76
1398.00	415.06
1399.00	424.42
1400.00	431.44
1401.00	432.22
1402.00	432.22
1403.00	443.92
1404.00	441.58
1405.00	439.24
1406.00	433.00
1407.00	426.76
1408.00	421.30
1409.00	386.19
1410.00	395.55
1411.00	404.91
1412.00	415.84
1413.00	397.89
1414.00	401.79
1415.00	404.13
1416.00	408.03
1417.00	393.99
1418.00	383.85
1419.00	379.17
1420.00	357.32
1421.00	375.27
1422.00	371.36
1423.00	403.35
1424.00	399.45
1425.00	433.78
1426.00	436.90
1427.00	436.12
1428.00	419.74
1429.00	405.69
1430.00	417.40
1431.00	398.67
1432.00	401.01
1433.00	402.57
1434.00	446.26
1435.00	457.96
1436.00	462.65
1437.00	426.76
1438.00	416.62
1439.00	389.31
1440.00	388.53
1441.00	387.75
1442.00	397.89
1443.00	400.23
1444.00	393.99
1445.00	422.08
1446.00	443.92
1447.00	468.11
1448.00	452.50
1449.00	429.88
1450.00	381.51
1451.00	384.63
1452.00	393.21
1453.00	425.20
1454.00	415.84
1455.00	417.40
1456.00	404.13
1457.00	411.15
1458.00	471.23
1459.00	507.90
1460.00	514.92
1461.00	477.47
1462.00	436.12
1463.00	403.35
1464.00	390.87
1465.00	423.64
1466.00	448.60
1467.00	447.82
1468.00	429.10
1469.00	419.74
1470.00	390.09
1471.00	379.95
1472.00	393.21
1473.00	399.45
1474.00	428.32
1475.00	414.27
1476.00	406.47
1477.00	390.09
1478.00	406.47
1479.00	408.81
1480.00	387.75
1481.00	381.51
1482.00	402.57
1483.00	427.54
1484.00	399.45
1485.00	379.17
1486.00	368.24
1487.00	381.51
1488.00	390.09
1489.00	393.99
1490.00	383.85
1491.00	390.87
1492.00	372.15
1493.00	379.95
1494.00	364.34
1495.00	413.49
1496.00	436.12
1497.00	459.53
1498.00	439.24
1499.00	426.76
1500.00	405.69
1501.00	387.75
1502.00	384.63
1503.00	381.51
1504.00	415.84
1505.00	451.72
1506.00	491.51
1507.00	450.16
1508.00	409.59
1509.00	379.17
1510.00	377.61
1511.00	372.93
1512.00	386.19
1513.00	418.18
1514.00	419.74
1515.00	399.45
1516.00	367.46
1517.00	340.94
1518.00	358.10
1519.00	369.02
1520.00	390.87
1521.00	383.07
1522.00	392.43
1523.00	415.84
1524.00	431.44
1525.00	408.81
1526.00	410.37
1527.00	408.03
1528.00	437.68
1529.00	420.52
1530.00	397.11
1531.00	368.24
1532.00	354.98
1533.00	373.71
1534.00	408.81
1535.00	454.06
1536.00	440.80
1537.00	423.64
1538.00	390.87
1539.00	395.55
1540.00	403.35
1541.00	402.57
1542.00	409.59
1543.00	393.99
1544.00	376.05
1545.00	357.32
1546.00	348.74
1547.00	411.15
1548.00	450.16
1549.00	478.25
1550.00	417.40
1551.00	383.07
1552.00	369.80
1553.00	394.77
1554.00	383.07
1555.00	379.17
1556.00	360.44
1557.00	361.22
1558.00	367.46
1559.00	397.89
1560.00	418.96
1561.00	426.76
1562.00	411.93
1563.00	402.57
1564.00	399.45
1565.00	399.45
1566.00	394.77
1567.00	404.13
1568.00	418.18
1569.00	427.54
1570.00	410.37
1571.00	376.83
1572.00	381.51
1573.00	377.61
1574.00	385.41
1575.00	380.73
1576.00	390.87
1577.00	409.59
1578.00	418.18
1579.00	422.08
1580.00	416.62
1581.00	404.13
1582.00	403.35
1583.00	389.31
1584.00	397.11
1585.00	398.67
1586.00	398.67
1587.00	394.77
1588.00	383.85
1589.00	377.61
1590.00	395.55
1591.00	399.45
1592.00	422.86
1593.00	399.45
1594.00	392.43
1595.00	386.19
1596.00	422.86
1597.00	435.34
1598.00	425.20
1599.00	385.41
1600.00	344.84
1601.00	353.42
1602.00	369.80
1603.00	387.75
1604.00	383.07
1605.00	369.80
1606.00	383.85
1607.00	407.25
1608.00	429.10
1609.00	407.25
1610.00	399.45
1611.00	397.11
1612.00	394.77
1613.00	387.75
1614.00	353.42
1615.00	373.71
1616.00	360.44
1617.00	385.41
1618.00	416.62
1619.00	432.22
1620.00	443.92
1621.00	425.20
1622.00	411.93
1623.00	391.65
1624.00	411.93
1625.00	416.62
1626.00	399.45
1627.00	376.83
1628.00	401.01
1629.00	411.15
1630.00	412.71
1631.00	373.71
1632.00	379.95
1633.00	350.30
1634.00	379.17
1635.00	413.49
1636.00	417.40
1637.00	395.55
1638.00	365.90
1639.00	356.54
1640.00	366.68
1641.00	372.15
1642.00	404.13
1643.00	383.07
1644.00	383.85
1645.00	366.68
1646.00	397.89
1647.00	380.73
1648.00	382.29
1649.00	366.68
1650.00	367.46
1651.00	359.66
1652.00	365.90
1653.00	375.27
1654.00	407.25
1655.00	376.05
1656.00	386.97
1657.00	376.83
1658.00	374.49
1659.00	374.49
1660.00	383.85
1661.00	433.78
1662.00	444.70
1663.00	429.88
1664.00	404.91
1665.00	379.17
1666.00	373.71
1667.00	384.63
1668.00	401.01
1669.00	393.99
1670.00	402.57
1671.00	393.21
1672.00	408.03
1673.00	395.55
1674.00	383.85
1675.00	397.89
1676.00	401.79
1677.00	416.62
1678.00	404.13
1679.00	405.69
1680.00	415.84
1681.00	401.01
1682.00	385.41
1683.00	376.83
1684.00	430.66
1685.00	540.66
1686.00	743.51
1687.00	1037.64
1688.00	1378.58
1689.00	1684.41
1690.00	1845.90
1691.00	1880.23
1692.00	1715.61
1693.00	1444.89
1694.00	1126.58
1695.00	848.83
1696.00	678.76
1697.00	546.12
1698.00	468.89
1699.00	424.42
1700.00	395.55
1701.00	388.53
1702.00	386.19
1703.00	395.55
1704.00	404.13
1705.00	392.43
1706.00	373.71
1707.00	374.49
1708.00	366.68
1709.00	387.75
1710.00	376.83
1711.00	395.55
1712.00	378.39
1713.00	373.71
1714.00	379.17
1715.00	388.53
1716.00	423.64
1717.00	396.33
1718.00	398.67
1719.00	356.54
1720.00	364.34
1721.00	390.87
1722.00	424.42
1723.00	423.64
1724.00	414.27
1725.00	393.21
1726.00	397.11
1727.00	379.17
1728.00	379.17
1729.00	386.97
1730.00	393.21
1731.00	408.81
1732.00	402.57
1733.00	392.43
1734.00	383.07
1735.00	376.05
1736.00	364.34
1737.00	377.61
1738.00	395.55
1739.00	392.43
1740.00	387.75
1741.00	379.95
1742.00	404.91
1743.00	393.99
1744.00	373.71
1745.00	362.78
1746.00	369.80
1747.00	372.93
1748.00	396.33
1749.00	384.63
1750.00	402.57
1751.00	376.05
1752.00	376.83
1753.00	365.90
1754.00	368.24
1755.00	379.17
1756.00	375.27
1757.00	390.09
1758.00	403.35
1759.00	412.71
1760.00	401.01
1761.00	371.36
1762.00	372.93
1763.00	379.17
1764.00	412.71
1765.00	425.20
1766.00	429.10
1767.00	404.91
1768.00	376.83
1769.00	369.02
1770.00	382.29
1771.00	410.37
1772.00	413.49
1773.00	431.44
1774.00	447.04
1775.00	455.62
1776.00	422.08
1777.00	410.37
1778.00	403.35
1779.00	419.74
1780.00	408.81
1781.00	403.35
1782.00	384.63
1783.00	389.31
1784.00	389.31
1785.00	408.03
1786.00	400.23
1787.00	401.79
1788.00	392.43
1789.00	395.55
1790.00	388.53
1791.00	383.07
1792.00	361.22
1793.00	330.02
1794.00	359.66
1795.00	382.29
1796.00	417.40
1797.00	379.95
1798.00	369.80
1799.00	365.90
1800.00	382.29
1801.00	386.97
1802.00	393.99
1803.00	383.85
1804.00	376.83
1805.00	389.31
1806.00	435.34
1807.00	428.32
1808.00	423.64
1809.00	370.58
1810.00	384.63
1811.00	362.78
1812.00	383.85
1813.00	376.05
1814.00	376.05
1815.00	358.10
1816.00	346.40
1817.00	358.10
1818.00	379.95
1819.00	412.71
1820.00	417.40
1821.00	409.59
1822.00	393.21
1823.00	394.77
1824.00	388.53
1825.00	395.55
1826.00	366.68
1827.00	404.13
1828.00	396.33
1829.00	416.62
1830.00	399.45
1831.00	397.11
1832.00	417.40
1833.00	399.45
1834.00	400.23
1835.00	360.44
1836.00	367.46
1837.00	375.27
1838.00	378.39
1839.00	365.12
1840.00	374.49
1841.00	411.15
1842.00	440.02
1843.00	428.32
1844.00	401.01
1845.00	372.15
1846.00	363.56
1847.00	376.05
1848.00	377.61
1849.00	384.63
1850.00	368.24
1851.00	379.17
1852.00	366.68
1853.00	388.53
1854.00	395.55
1855.00	423.64
1856.00	411.15
1857.00	406.47
1858.00	412.71
1859.00	399.45
1860.00	404.13
1861.00	384.63
1862.00	391.65
1863.00	421.30
1864.00	443.92
1865.00	445.48
1866.00	399.45
1867.00	357.32
1868.00	352.64
1869.00	358.10
1870.00	381.51
1871.00	418.96
1872.00	443.92
1873.00	440.02
1874.00	424.42
1875.00	380.73
1876.00	372.15
1877.00	352.64
1878.00	371.36
1879.00	385.41
1880.00	381.51
1881.00	391.65
1882.00	404.13
1883.00	418.96
1884.00	422.86
1885.00	429.10
1886.00	442.36
1887.00	430.66
1888.00	421.30
1889.00	428.32
1890.00	449.38
1891.00	415.84
1892.00	401.79
1893.00	378.39
1894.00	388.53
1895.00	381.51
1896.00	379.95
1897.00	398.67
1898.00	386.19
1899.00	410.37
1900.00	402.57
1901.00	396.33
1902.00	369.02
1903.00	376.05
1904.00	394.77
1905.00	394.77
1906.00	379.95
1907.00	389.31
1908.00	410.37
1909.00	443.14
1910.00	433.00
1911.00	408.03
1912.00	393.99
1913.00	376.83
1914.00	395.55
1915.00	381.51
1916.00	387.75
1917.00	367.46
1918.00	375.27
1919.00	387.75
1920.00	418.18
1921.00	406.47
1922.00	379.17
1923.00	344.84
1924.00	352.64
1925.00	381.51
1926.00	386.19
1927.00	401.01
1928.00	391.65
1929.00	405.69
1930.00	411.15
1931.00	420.52
1932.00	425.98
1933.00	397.89
1934.00	396.33
1935.00	403.35
1936.00	435.34
1937.00	427.54
1938.00	405.69
1939.00	376.83
1940.00	379.17
1941.00	368.24
1942.00	369.02
1943.00	382.29
1944.00	421.30
1945.00	407.25
1946.00	402.57
1947.00	383.07
1948.00	392.43
1949.00	380.73
1950.00	372.93
1951.00	361.22
1952.00	365.12
1953.00	364.34
1954.00	375.27
1955.00	379.17
1956.00	379.95
1957.00	373.71
1958.00	374.49
1959.00	383.07
1960.00	377.61
1961.00	384.63
1962.00	402.57
1963.00	420.52
1964.00	414.27
1965.00	397.89
1966.00	399.45
1967.00	384.63
1968.00	375.27
1969.00	376.05
1970.00	383.85
1971.00	374.49
1972.00	383.07
1973.00	422.86
1974.00	425.20
1975.00	432.22
1976.00	393.99
1977.00	412.71
1978.00	390.87
1979.00	373.71
1980.00	354.98
1981.00	347.96
1982.00	388.53
1983.00	402.57
1984.00	424.42
1985.00	408.81
1986.00	390.87
1987.00	386.19
1988.00	376.83
1989.00	388.53
1990.00	359.66
1991.00	350.30
1992.00	366.68
1993.00	386.19
1994.00	413.49
1995.00	413.49
1996.00	441.58
1997.00	425.20
1998.00	418.18
1999.00	407.25
2000.00	440.02
2001.00	446.26
2002.00	438.46
2003.00	407.25
2004.00	396.33
2005.00	386.97
2006.00	394.77
2007.00	394.77
2008.00	406.47
2009.00	386.97
2010.00	396.33
2011.00	403.35
2012.00	411.15
2013.00	405.69
2014.00	379.17
2015.00	390.87
2016.00	379.95
2017.00	372.15
2018.00	378.39
2019.00	373.71
2020.00	363.56
2021.00	354.98
2022.00	365.90
2023.00	420.52
2024.00	440.02
2025.00	436.90
2026.00	406.47
2027.00	359.66
2028.00	356.54
2029.00	358.88
2030.00	371.36
2031.00	395.55
2032.00	367.46
2033.00	375.27
2034.00	374.49
2035.00	415.06
2036.00	411.93
2037.00	403.35
2038.00	417.40
2039.00	435.34
2040.00	431.44
2041.00	403.35
2042.00	377.61
2043.00	387.75
2044.00	376.83
2045.00	388.53
2046.00	377.61
2047.00	400.23
>>>>>End Processed Spectral Data<<<<<
