SpectraSuite Data File
++++++++++++++++++++++++++++++++++++
Date: Thu Nov 16 14:27:22 EST 2017
User: cheriyan
Dark Spectrum Present: No
Reference Spectrum Present: No
Number of Sampled Component Spectra: 1
Spectrometers: USB2+H05261
Integration Time (usec): 100000 (USB2+H05261)
Spectra Averaged: 1 (USB2+H05261)
Boxcar Smoothing: 1 (USB2+H05261)
Correct for Electrical Dark: No (USB2+H05261)
Strobe/Lamp Enabled: No (USB2+H05261)
Correct for Detector Non-linearity: No (USB2+H05261)
Correct for Stray Light: No (USB2+H05261)
Number of Pixels in Processed Spectrum: 2048
>>>>>Begin Processed Spectral Data<<<<<
0.00	294.91
1.00	294.91
2.00	271.50
3.00	268.38
4.00	258.24
5.00	251.22
6.00	227.03
7.00	219.23
8.00	215.33
9.00	208.31
10.00	191.14
11.00	200.51
12.00	188.80
13.00	170.08
14.00	190.36
15.00	202.07
16.00	198.17
17.00	191.14
18.00	202.85
19.00	248.88
20.00	253.56
21.00	273.06
22.00	297.25
23.00	319.09
24.00	315.19
25.00	317.53
26.00	318.31
27.00	351.08
28.00	331.58
29.00	340.94
30.00	329.24
31.00	358.10
32.00	358.88
33.00	406.47
34.00	425.98
35.00	412.71
36.00	376.83
37.00	358.10
38.00	385.41
39.00	374.49
40.00	393.21
41.00	395.55
42.00	433.78
43.00	429.10
44.00	433.78
45.00	419.74
46.00	421.30
47.00	425.20
48.00	436.12
49.00	423.64
50.00	428.32
51.00	409.59
52.00	445.48
53.00	415.06
54.00	414.27
55.00	389.31
56.00	373.71
57.00	374.49
58.00	351.08
59.00	366.68
60.00	348.74
61.00	357.32
62.00	407.25
63.00	433.78
64.00	433.78
65.00	366.68
66.00	376.83
67.00	401.01
68.00	408.81
69.00	349.52
70.00	337.04
71.00	366.68
72.00	411.93
73.00	417.40
74.00	376.83
75.00	362.78
76.00	354.98
77.00	378.39
78.00	388.53
79.00	389.31
80.00	418.96
81.00	401.01
82.00	419.74
83.00	397.89
84.00	408.81
85.00	378.39
86.00	355.76
87.00	361.22
88.00	378.39
89.00	386.19
90.00	381.51
91.00	375.27
92.00	386.19
93.00	385.41
94.00	384.63
95.00	390.09
96.00	418.96
97.00	413.49
98.00	418.18
99.00	405.69
100.00	411.15
101.00	389.31
102.00	361.22
103.00	372.15
104.00	379.95
105.00	399.45
106.00	382.29
107.00	376.83
108.00	370.58
109.00	387.75
110.00	408.81
111.00	424.42
112.00	419.74
113.00	418.18
114.00	393.99
115.00	386.19
116.00	390.09
117.00	403.35
118.00	398.67
119.00	384.63
120.00	380.73
121.00	382.29
122.00	384.63
123.00	402.57
124.00	415.06
125.00	431.44
126.00	394.77
127.00	369.02
128.00	338.60
129.00	365.90
130.00	365.90
131.00	387.75
132.00	397.11
133.00	429.88
134.00	415.06
135.00	402.57
136.00	380.73
137.00	385.41
138.00	385.41
139.00	408.03
140.00	411.15
141.00	404.13
142.00	418.96
143.00	422.86
144.00	436.90
145.00	408.81
146.00	393.21
147.00	383.85
148.00	404.13
149.00	402.57
150.00	386.19
151.00	358.10
152.00	372.15
153.00	385.41
154.00	430.66
155.00	437.68
156.00	431.44
157.00	397.89
158.00	382.29
159.00	386.97
160.00	379.95
161.00	353.42
162.00	352.64
163.00	357.32
164.00	398.67
165.00	388.53
166.00	387.75
167.00	391.65
168.00	412.71
169.00	422.86
170.00	403.35
171.00	401.79
172.00	397.11
173.00	376.05
174.00	370.58
175.00	347.18
176.00	378.39
177.00	391.65
178.00	402.57
179.00	430.66
180.00	425.98
181.00	422.08
182.00	399.45
183.00	391.65
184.00	401.01
185.00	404.13
186.00	397.89
187.00	395.55
188.00	383.85
189.00	405.69
190.00	393.21
191.00	392.43
192.00	391.65
193.00	394.77
194.00	394.77
195.00	391.65
196.00	400.23
197.00	399.45
198.00	401.79
199.00	393.21
200.00	385.41
201.00	411.15
202.00	410.37
203.00	425.20
204.00	376.05
205.00	383.85
206.00	375.27
207.00	394.77
208.00	396.33
209.00	408.03
210.00	416.62
211.00	437.68
212.00	448.60
213.00	424.42
214.00	398.67
215.00	381.51
216.00	386.19
217.00	397.11
218.00	419.74
219.00	433.00
220.00	411.15
221.00	388.53
222.00	389.31
223.00	415.06
224.00	423.64
225.00	408.03
226.00	400.23
227.00	387.75
228.00	390.09
229.00	384.63
230.00	392.43
231.00	397.11
232.00	404.91
233.00	376.83
234.00	382.29
235.00	370.58
236.00	393.21
237.00	376.83
238.00	368.24
239.00	369.80
240.00	381.51
241.00	395.55
242.00	409.59
243.00	420.52
244.00	459.53
245.00	422.86
246.00	393.99
247.00	392.43
248.00	404.13
249.00	433.78
250.00	387.75
251.00	367.46
252.00	351.86
253.00	376.83
254.00	401.79
255.00	407.25
256.00	380.73
257.00	407.25
258.00	402.57
259.00	418.18
260.00	400.23
261.00	398.67
262.00	408.03
263.00	417.40
264.00	429.88
265.00	443.92
266.00	427.54
267.00	418.18
268.00	397.11
269.00	392.43
270.00	410.37
271.00	404.91
272.00	428.32
273.00	408.81
274.00	398.67
275.00	372.15
276.00	383.07
277.00	379.95
278.00	393.21
279.00	385.41
280.00	403.35
281.00	408.81
282.00	423.64
283.00	439.24
284.00	448.60
285.00	428.32
286.00	434.56
287.00	418.18
288.00	425.20
289.00	427.54
290.00	416.62
291.00	388.53
292.00	358.88
293.00	326.89
294.00	319.09
295.00	339.38
296.00	362.78
297.00	389.31
298.00	352.64
299.00	372.93
300.00	387.75
301.00	399.45
302.00	395.55
303.00	395.55
304.00	404.13
305.00	404.13
306.00	392.43
307.00	402.57
308.00	402.57
309.00	418.18
310.00	375.27
311.00	380.73
312.00	365.90
313.00	382.29
314.00	383.85
315.00	383.07
316.00	380.73
317.00	351.08
318.00	353.42
319.00	371.36
320.00	385.41
321.00	370.58
322.00	362.00
323.00	397.11
324.00	392.43
325.00	406.47
326.00	382.29
327.00	401.79
328.00	383.85
329.00	400.23
330.00	382.29
331.00	407.25
332.00	383.07
333.00	412.71
334.00	377.61
335.00	388.53
336.00	369.80
337.00	406.47
338.00	378.39
339.00	401.01
340.00	398.67
341.00	422.08
342.00	391.65
343.00	372.93
344.00	403.35
345.00	415.06
346.00	414.27
347.00	379.17
348.00	372.93
349.00	365.12
350.00	397.89
351.00	411.93
352.00	452.50
353.00	460.31
354.00	462.65
355.00	447.82
356.00	411.15
357.00	424.42
358.00	409.59
359.00	387.75
360.00	374.49
361.00	391.65
362.00	434.56
363.00	422.08
364.00	401.79
365.00	393.99
366.00	408.81
367.00	428.32
368.00	445.48
369.00	422.08
370.00	436.90
371.00	393.21
372.00	397.89
373.00	378.39
374.00	397.89
375.00	388.53
376.00	397.89
377.00	391.65
378.00	397.11
379.00	397.89
380.00	403.35
381.00	388.53
382.00	398.67
383.00	415.06
384.00	443.14
385.00	438.46
386.00	418.18
387.00	422.08
388.00	408.81
389.00	418.96
390.00	437.68
391.00	439.24
392.00	439.24
393.00	433.78
394.00	443.14
395.00	457.18
396.00	450.16
397.00	443.92
398.00	417.40
399.00	410.37
400.00	401.79
401.00	386.97
402.00	370.58
403.00	359.66
404.00	388.53
405.00	416.62
406.00	418.18
407.00	436.12
408.00	417.40
409.00	423.64
410.00	398.67
411.00	394.77
412.00	383.85
413.00	355.76
414.00	367.46
415.00	351.08
416.00	365.90
417.00	365.12
418.00	382.29
419.00	385.41
420.00	386.97
421.00	384.63
422.00	387.75
423.00	366.68
424.00	352.64
425.00	351.86
426.00	347.18
427.00	388.53
428.00	384.63
429.00	416.62
430.00	425.20
431.00	440.80
432.00	422.08
433.00	411.15
434.00	411.15
435.00	436.12
436.00	429.10
437.00	429.88
438.00	412.71
439.00	424.42
440.00	429.88
441.00	457.96
442.00	470.45
443.00	487.61
444.00	476.69
445.00	417.40
446.00	392.43
447.00	378.39
448.00	408.03
449.00	397.89
450.00	407.25
451.00	397.89
452.00	411.15
453.00	397.89
454.00	384.63
455.00	383.85
456.00	404.13
457.00	422.08
458.00	402.57
459.00	368.24
460.00	390.87
461.00	394.77
462.00	423.64
463.00	398.67
464.00	419.74
465.00	420.52
466.00	432.22
467.00	423.64
468.00	437.68
469.00	429.88
470.00	408.81
471.00	369.80
472.00	376.05
473.00	418.96
474.00	429.88
475.00	425.98
476.00	400.23
477.00	396.33
478.00	386.97
479.00	392.43
480.00	393.21
481.00	419.74
482.00	434.56
483.00	435.34
484.00	450.94
485.00	426.76
486.00	444.70
487.00	414.27
488.00	415.06
489.00	397.11
490.00	397.89
491.00	398.67
492.00	425.98
493.00	422.86
494.00	442.36
495.00	411.93
496.00	413.49
497.00	413.49
498.00	409.59
499.00	403.35
500.00	380.73
501.00	404.13
502.00	408.03
503.00	410.37
504.00	386.19
505.00	404.13
506.00	429.10
507.00	455.62
508.00	454.84
509.00	470.45
510.00	480.59
511.00	464.99
512.00	443.14
513.00	425.98
514.00	443.92
515.00	401.01
516.00	393.21
517.00	368.24
518.00	404.91
519.00	400.23
520.00	414.27
521.00	391.65
522.00	407.25
523.00	398.67
524.00	396.33
525.00	410.37
526.00	403.35
527.00	422.86
528.00	381.51
529.00	377.61
530.00	393.21
531.00	404.91
532.00	420.52
533.00	401.01
534.00	389.31
535.00	380.73
536.00	396.33
537.00	437.68
538.00	434.56
539.00	443.14
540.00	432.22
541.00	449.38
542.00	440.80
543.00	431.44
544.00	425.98
545.00	419.74
546.00	414.27
547.00	404.13
548.00	381.51
549.00	369.80
550.00	388.53
551.00	388.53
552.00	403.35
553.00	393.99
554.00	404.13
555.00	406.47
556.00	425.98
557.00	419.74
558.00	435.34
559.00	425.20
560.00	436.12
561.00	408.03
562.00	379.17
563.00	373.71
564.00	390.87
565.00	404.91
566.00	415.84
567.00	415.06
568.00	429.10
569.00	416.62
570.00	410.37
571.00	418.18
572.00	428.32
573.00	417.40
574.00	376.83
575.00	358.88
576.00	378.39
577.00	388.53
578.00	420.52
579.00	422.86
580.00	417.40
581.00	412.71
582.00	383.07
583.00	401.79
584.00	386.19
585.00	416.62
586.00	440.80
587.00	455.62
588.00	437.68
589.00	422.08
590.00	402.57
591.00	398.67
592.00	400.23
593.00	407.25
594.00	410.37
595.00	425.98
596.00	419.74
597.00	427.54
598.00	394.77
599.00	386.19
600.00	393.99
601.00	402.57
602.00	416.62
603.00	400.23
604.00	396.33
605.00	411.15
606.00	443.92
607.00	437.68
608.00	443.14
609.00	422.08
610.00	455.62
611.00	464.21
612.00	454.06
613.00	414.27
614.00	383.85
615.00	377.61
616.00	402.57
617.00	407.25
618.00	412.71
619.00	404.13
620.00	393.99
621.00	408.03
622.00	403.35
623.00	429.10
624.00	443.14
625.00	451.72
626.00	425.20
627.00	393.99
628.00	404.13
629.00	449.38
630.00	470.45
631.00	441.58
632.00	403.35
633.00	400.23
634.00	498.53
635.00	622.58
636.00	773.16
637.00	847.27
638.00	853.52
639.00	823.09
640.00	722.45
641.00	632.72
642.00	522.72
643.00	481.37
644.00	443.14
645.00	449.38
646.00	444.70
647.00	479.03
648.00	446.26
649.00	445.48
650.00	405.69
651.00	422.86
652.00	411.15
653.00	393.99
654.00	447.82
655.00	430.66
656.00	468.89
657.00	393.99
658.00	404.91
659.00	399.45
660.00	429.88
661.00	433.00
662.00	439.24
663.00	416.62
664.00	411.93
665.00	402.57
666.00	417.40
667.00	453.28
668.00	418.96
669.00	419.74
670.00	393.21
671.00	425.20
672.00	411.93
673.00	421.30
674.00	447.04
675.00	474.35
676.00	494.63
677.00	502.43
678.00	488.39
679.00	492.29
680.00	484.49
681.00	498.53
682.00	479.81
683.00	440.02
684.00	411.93
685.00	402.57
686.00	378.39
687.00	379.17
688.00	358.88
689.00	391.65
690.00	398.67
691.00	424.42
692.00	431.44
693.00	429.10
694.00	419.74
695.00	411.93
696.00	399.45
697.00	419.74
698.00	418.96
699.00	426.76
700.00	417.40
701.00	454.84
702.00	444.70
703.00	442.36
704.00	407.25
705.00	424.42
706.00	411.15
707.00	396.33
708.00	405.69
709.00	410.37
710.00	445.48
711.00	422.86
712.00	425.98
713.00	421.30
714.00	417.40
715.00	418.96
716.00	418.18
717.00	450.94
718.00	479.03
719.00	445.48
720.00	435.34
721.00	412.71
722.00	429.88
723.00	447.04
724.00	461.09
725.00	490.73
726.00	476.69
727.00	452.50
728.00	410.37
729.00	388.53
730.00	365.12
731.00	382.29
732.00	393.21
733.00	416.62
734.00	415.84
735.00	432.22
736.00	425.98
737.00	430.66
738.00	426.76
739.00	450.94
740.00	439.24
741.00	423.64
742.00	408.81
743.00	449.38
744.00	453.28
745.00	444.70
746.00	414.27
747.00	397.11
748.00	402.57
749.00	390.09
750.00	421.30
751.00	401.01
752.00	413.49
753.00	380.73
754.00	408.81
755.00	415.06
756.00	447.82
757.00	443.14
758.00	427.54
759.00	420.52
760.00	404.13
761.00	411.15
762.00	411.93
763.00	436.12
764.00	453.28
765.00	443.92
766.00	436.12
767.00	418.18
768.00	417.40
769.00	390.09
770.00	390.87
771.00	387.75
772.00	397.89
773.00	404.91
774.00	379.17
775.00	398.67
776.00	383.07
777.00	408.81
778.00	387.75
779.00	400.23
780.00	426.76
781.00	448.60
782.00	444.70
783.00	476.69
784.00	461.09
785.00	475.91
786.00	426.76
787.00	430.66
788.00	400.23
789.00	386.97
790.00	408.03
791.00	412.71
792.00	430.66
793.00	418.18
794.00	417.40
795.00	396.33
796.00	383.85
797.00	392.43
798.00	422.08
799.00	415.06
800.00	427.54
801.00	401.79
802.00	414.27
803.00	401.79
804.00	408.81
805.00	408.03
806.00	411.15
807.00	424.42
808.00	422.86
809.00	422.86
810.00	401.79
811.00	397.11
812.00	384.63
813.00	402.57
814.00	402.57
815.00	411.15
816.00	413.49
817.00	442.36
818.00	450.16
819.00	440.02
820.00	409.59
821.00	424.42
822.00	424.42
823.00	420.52
824.00	392.43
825.00	390.87
826.00	428.32
827.00	418.18
828.00	396.33
829.00	377.61
830.00	415.06
831.00	407.25
832.00	416.62
833.00	415.06
834.00	436.90
835.00	414.27
836.00	393.99
837.00	375.27
838.00	365.12
839.00	379.17
840.00	389.31
841.00	407.25
842.00	379.17
843.00	412.71
844.00	422.08
845.00	454.06
846.00	429.10
847.00	409.59
848.00	414.27
849.00	428.32
850.00	436.90
851.00	408.03
852.00	397.11
853.00	391.65
854.00	401.01
855.00	416.62
856.00	403.35
857.00	403.35
858.00	390.09
859.00	370.58
860.00	356.54
861.00	353.42
862.00	395.55
863.00	422.86
864.00	432.22
865.00	441.58
866.00	411.93
867.00	415.06
868.00	395.55
869.00	396.33
870.00	376.83
871.00	379.95
872.00	414.27
873.00	443.14
874.00	445.48
875.00	411.15
876.00	412.71
877.00	417.40
878.00	442.36
879.00	418.18
880.00	407.25
881.00	409.59
882.00	454.84
883.00	478.25
884.00	482.15
885.00	436.90
886.00	424.42
887.00	402.57
888.00	402.57
889.00	415.06
890.00	415.84
891.00	417.40
892.00	400.23
893.00	411.15
894.00	429.10
895.00	433.00
896.00	448.60
897.00	423.64
898.00	428.32
899.00	386.19
900.00	396.33
901.00	419.74
902.00	435.34
903.00	427.54
904.00	390.09
905.00	390.09
906.00	383.85
907.00	375.27
908.00	393.21
909.00	727.13
910.00	762.23
911.00	738.83
912.00	428.32
913.00	418.18
914.00	421.30
915.00	420.52
916.00	435.34
917.00	436.90
918.00	447.82
919.00	433.78
920.00	430.66
921.00	422.86
922.00	403.35
923.00	400.23
924.00	377.61
925.00	388.53
926.00	394.77
927.00	397.11
928.00	380.73
929.00	405.69
930.00	411.93
931.00	444.70
932.00	431.44
933.00	425.98
934.00	428.32
935.00	411.93
936.00	410.37
937.00	401.01
938.00	425.98
939.00	450.16
940.00	440.02
941.00	428.32
942.00	419.74
943.00	419.74
944.00	438.46
945.00	464.21
946.00	474.35
947.00	461.09
948.00	437.68
949.00	428.32
950.00	437.68
951.00	430.66
952.00	419.74
953.00	393.21
954.00	379.17
955.00	410.37
956.00	415.06
957.00	435.34
958.00	433.78
959.00	439.24
960.00	440.80
961.00	445.48
962.00	453.28
963.00	443.92
964.00	394.77
965.00	391.65
966.00	399.45
967.00	439.24
968.00	435.34
969.00	422.08
970.00	418.96
971.00	426.76
972.00	393.21
973.00	378.39
974.00	357.32
975.00	390.09
976.00	413.49
977.00	418.96
978.00	429.10
979.00	435.34
980.00	432.22
981.00	415.84
982.00	385.41
983.00	387.75
984.00	408.03
985.00	425.20
986.00	407.25
987.00	408.81
988.00	387.75
989.00	423.64
990.00	442.36
991.00	436.12
992.00	415.84
993.00	387.75
994.00	418.96
995.00	423.64
996.00	431.44
997.00	412.71
998.00	411.15
999.00	402.57
1000.00	384.63
1001.00	391.65
1002.00	396.33
1003.00	409.59
1004.00	441.58
1005.00	424.42
1006.00	429.10
1007.00	422.08
1008.00	423.64
1009.00	455.62
1010.00	431.44
1011.00	452.50
1012.00	412.71
1013.00	401.01
1014.00	393.99
1015.00	397.89
1016.00	415.06
1017.00	404.91
1018.00	419.74
1019.00	403.35
1020.00	387.75
1021.00	386.97
1022.00	390.09
1023.00	422.08
1024.00	428.32
1025.00	454.84
1026.00	429.10
1027.00	406.47
1028.00	385.41
1029.00	386.97
1030.00	434.56
1031.00	447.82
1032.00	464.99
1033.00	440.80
1034.00	421.30
1035.00	426.76
1036.00	427.54
1037.00	442.36
1038.00	432.22
1039.00	416.62
1040.00	419.74
1041.00	435.34
1042.00	436.12
1043.00	427.54
1044.00	408.81
1045.00	433.00
1046.00	431.44
1047.00	459.53
1048.00	436.90
1049.00	436.12
1050.00	404.13
1051.00	408.81
1052.00	401.01
1053.00	414.27
1054.00	411.15
1055.00	405.69
1056.00	394.77
1057.00	378.39
1058.00	379.95
1059.00	383.07
1060.00	383.07
1061.00	380.73
1062.00	395.55
1063.00	402.57
1064.00	414.27
1065.00	422.86
1066.00	424.42
1067.00	425.20
1068.00	408.03
1069.00	401.79
1070.00	392.43
1071.00	374.49
1072.00	387.75
1073.00	386.97
1074.00	417.40
1075.00	427.54
1076.00	457.18
1077.00	457.96
1078.00	445.48
1079.00	450.16
1080.00	441.58
1081.00	425.98
1082.00	376.05
1083.00	386.19
1084.00	393.21
1085.00	422.08
1086.00	415.06
1087.00	439.24
1088.00	436.90
1089.00	440.02
1090.00	427.54
1091.00	423.64
1092.00	426.76
1093.00	406.47
1094.00	405.69
1095.00	400.23
1096.00	403.35
1097.00	402.57
1098.00	397.89
1099.00	401.01
1100.00	420.52
1101.00	410.37
1102.00	421.30
1103.00	398.67
1104.00	391.65
1105.00	383.85
1106.00	388.53
1107.00	407.25
1108.00	413.49
1109.00	433.78
1110.00	424.42
1111.00	422.08
1112.00	401.79
1113.00	417.40
1114.00	429.88
1115.00	447.04
1116.00	436.90
1117.00	424.42
1118.00	424.42
1119.00	422.86
1120.00	438.46
1121.00	439.24
1122.00	449.38
1123.00	458.74
1124.00	447.04
1125.00	440.80
1126.00	422.86
1127.00	422.86
1128.00	409.59
1129.00	410.37
1130.00	429.88
1131.00	447.04
1132.00	432.22
1133.00	408.81
1134.00	397.89
1135.00	402.57
1136.00	429.10
1137.00	440.80
1138.00	457.96
1139.00	435.34
1140.00	422.08
1141.00	408.81
1142.00	386.97
1143.00	392.43
1144.00	403.35
1145.00	431.44
1146.00	451.72
1147.00	468.89
1148.00	493.85
1149.00	488.39
1150.00	470.45
1151.00	454.84
1152.00	468.11
1153.00	442.36
1154.00	413.49
1155.00	383.07
1156.00	414.27
1157.00	417.40
1158.00	404.13
1159.00	391.65
1160.00	411.15
1161.00	428.32
1162.00	439.24
1163.00	448.60
1164.00	451.72
1165.00	433.00
1166.00	422.86
1167.00	415.84
1168.00	422.86
1169.00	419.74
1170.00	429.10
1171.00	435.34
1172.00	424.42
1173.00	414.27
1174.00	408.03
1175.00	447.04
1176.00	473.57
1177.00	513.36
1178.00	481.37
1179.00	444.70
1180.00	444.70
1181.00	461.87
1182.00	504.00
1183.00	471.23
1184.00	483.71
1185.00	462.65
1186.00	468.11
1187.00	427.54
1188.00	405.69
1189.00	412.71
1190.00	413.49
1191.00	425.98
1192.00	411.15
1193.00	429.88
1194.00	421.30
1195.00	412.71
1196.00	388.53
1197.00	409.59
1198.00	439.24
1199.00	450.16
1200.00	449.38
1201.00	418.96
1202.00	456.40
1203.00	468.11
1204.00	483.71
1205.00	494.63
1206.00	472.79
1207.00	467.33
1208.00	429.10
1209.00	447.82
1210.00	472.79
1211.00	468.89
1212.00	475.13
1213.00	447.82
1214.00	461.09
1215.00	440.02
1216.00	443.14
1217.00	425.20
1218.00	420.52
1219.00	429.10
1220.00	439.24
1221.00	428.32
1222.00	410.37
1223.00	404.91
1224.00	397.89
1225.00	386.19
1226.00	344.84
1227.00	345.62
1228.00	382.29
1229.00	446.26
1230.00	456.40
1231.00	458.75
1232.00	457.96
1233.00	472.01
1234.00	448.60
1235.00	425.98
1236.00	422.86
1237.00	436.12
1238.00	414.27
1239.00	401.01
1240.00	410.37
1241.00	437.68
1242.00	465.77
1243.00	476.69
1244.00	446.26
1245.00	434.56
1246.00	405.69
1247.00	404.13
1248.00	405.69
1249.00	420.52
1250.00	443.14
1251.00	429.10
1252.00	408.81
1253.00	397.11
1254.00	386.19
1255.00	389.31
1256.00	396.33
1257.00	388.53
1258.00	384.63
1259.00	393.21
1260.00	417.40
1261.00	418.18
1262.00	434.56
1263.00	454.06
1264.00	456.40
1265.00	421.30
1266.00	427.54
1267.00	429.88
1268.00	459.53
1269.00	440.80
1270.00	423.64
1271.00	417.40
1272.00	411.93
1273.00	425.98
1274.00	427.54
1275.00	430.66
1276.00	437.68
1277.00	414.27
1278.00	417.40
1279.00	429.88
1280.00	421.30
1281.00	461.87
1282.00	436.12
1283.00	468.89
1284.00	424.42
1285.00	439.24
1286.00	449.38
1287.00	451.72
1288.00	447.82
1289.00	422.08
1290.00	400.23
1291.00	397.11
1292.00	392.43
1293.00	402.57
1294.00	403.35
1295.00	422.08
1296.00	443.92
1297.00	422.86
1298.00	422.08
1299.00	423.64
1300.00	437.68
1301.00	412.71
1302.00	411.15
1303.00	431.44
1304.00	462.65
1305.00	463.43
1306.00	453.28
1307.00	425.20
1308.00	433.78
1309.00	436.90
1310.00	425.20
1311.00	400.23
1312.00	386.97
1313.00	422.08
1314.00	404.91
1315.00	419.74
1316.00	387.75
1317.00	409.59
1318.00	391.65
1319.00	397.89
1320.00	389.31
1321.00	405.69
1322.00	441.58
1323.00	443.92
1324.00	434.56
1325.00	431.44
1326.00	437.68
1327.00	410.37
1328.00	418.18
1329.00	413.49
1330.00	450.94
1331.00	454.06
1332.00	485.27
1333.00	503.22
1334.00	457.18
1335.00	422.86
1336.00	392.43
1337.00	437.68
1338.00	449.38
1339.00	447.82
1340.00	422.08
1341.00	407.25
1342.00	396.33
1343.00	390.87
1344.00	420.52
1345.00	438.46
1346.00	440.80
1347.00	419.74
1348.00	402.57
1349.00	418.96
1350.00	412.71
1351.00	441.58
1352.00	415.06
1353.00	415.84
1354.00	404.13
1355.00	434.56
1356.00	451.72
1357.00	444.70
1358.00	429.10
1359.00	409.59
1360.00	435.34
1361.00	434.56
1362.00	444.70
1363.00	408.81
1364.00	423.64
1365.00	425.98
1366.00	446.26
1367.00	457.96
1368.00	489.17
1369.00	501.65
1370.00	488.39
1371.00	458.74
1372.00	409.59
1373.00	398.67
1374.00	376.05
1375.00	420.52
1376.00	422.86
1377.00	440.80
1378.00	443.14
1379.00	447.04
1380.00	457.96
1381.00	443.92
1382.00	432.22
1383.00	434.56
1384.00	458.74
1385.00	459.53
1386.00	441.58
1387.00	416.62
1388.00	425.98
1389.00	446.26
1390.00	455.62
1391.00	456.40
1392.00	462.65
1393.00	462.65
1394.00	445.48
1395.00	433.00
1396.00	453.28
1397.00	482.93
1398.00	445.48
1399.00	411.15
1400.00	393.99
1401.00	454.84
1402.00	464.21
1403.00	482.15
1404.00	434.56
1405.00	422.86
1406.00	412.71
1407.00	405.69
1408.00	411.15
1409.00	411.15
1410.00	439.24
1411.00	447.04
1412.00	444.70
1413.00	434.56
1414.00	419.74
1415.00	420.52
1416.00	415.06
1417.00	409.59
1418.00	404.13
1419.00	408.03
1420.00	439.24
1421.00	429.88
1422.00	432.22
1423.00	430.66
1424.00	433.00
1425.00	430.66
1426.00	396.33
1427.00	401.01
1428.00	384.63
1429.00	393.21
1430.00	394.77
1431.00	433.78
1432.00	426.76
1433.00	442.36
1434.00	448.60
1435.00	482.15
1436.00	466.55
1437.00	474.35
1438.00	429.88
1439.00	400.23
1440.00	374.49
1441.00	413.49
1442.00	444.70
1443.00	459.53
1444.00	454.84
1445.00	453.28
1446.00	445.48
1447.00	441.58
1448.00	437.68
1449.00	422.86
1450.00	425.20
1451.00	399.45
1452.00	382.29
1453.00	353.42
1454.00	379.95
1455.00	394.77
1456.00	408.81
1457.00	390.09
1458.00	465.77
1459.00	479.03
1460.00	508.68
1461.00	453.28
1462.00	457.18
1463.00	450.16
1464.00	422.86
1465.00	461.09
1466.00	451.72
1467.00	457.96
1468.00	428.32
1469.00	432.22
1470.00	438.46
1471.00	435.34
1472.00	440.02
1473.00	422.86
1474.00	427.54
1475.00	432.22
1476.00	457.18
1477.00	425.98
1478.00	418.18
1479.00	409.59
1480.00	412.71
1481.00	411.15
1482.00	401.79
1483.00	410.37
1484.00	388.53
1485.00	402.57
1486.00	380.73
1487.00	391.65
1488.00	384.63
1489.00	402.57
1490.00	389.31
1491.00	390.87
1492.00	405.69
1493.00	418.18
1494.00	413.49
1495.00	390.09
1496.00	387.75
1497.00	358.10
1498.00	377.61
1499.00	386.97
1500.00	389.31
1501.00	387.75
1502.00	398.67
1503.00	409.59
1504.00	397.11
1505.00	396.33
1506.00	416.62
1507.00	419.74
1508.00	427.54
1509.00	423.64
1510.00	425.20
1511.00	412.71
1512.00	406.47
1513.00	403.35
1514.00	398.67
1515.00	376.83
1516.00	376.05
1517.00	386.97
1518.00	415.06
1519.00	410.37
1520.00	389.31
1521.00	391.65
1522.00	390.87
1523.00	383.85
1524.00	359.66
1525.00	362.00
1526.00	379.17
1527.00	384.63
1528.00	379.95
1529.00	386.97
1530.00	419.74
1531.00	432.22
1532.00	440.80
1533.00	419.74
1534.00	440.80
1535.00	414.27
1536.00	425.98
1537.00	386.97
1538.00	401.01
1539.00	379.95
1540.00	383.07
1541.00	372.93
1542.00	379.17
1543.00	372.93
1544.00	376.05
1545.00	385.41
1546.00	406.47
1547.00	418.96
1548.00	409.59
1549.00	408.81
1550.00	409.59
1551.00	384.63
1552.00	381.51
1553.00	359.66
1554.00	384.63
1555.00	380.73
1556.00	391.65
1557.00	406.47
1558.00	402.57
1559.00	418.18
1560.00	418.96
1561.00	402.57
1562.00	391.65
1563.00	390.87
1564.00	405.69
1565.00	406.47
1566.00	401.01
1567.00	421.30
1568.00	422.86
1569.00	401.79
1570.00	408.81
1571.00	393.99
1572.00	412.71
1573.00	367.46
1574.00	378.39
1575.00	371.36
1576.00	386.19
1577.00	401.01
1578.00	436.90
1579.00	441.58
1580.00	425.98
1581.00	386.97
1582.00	406.47
1583.00	399.45
1584.00	410.37
1585.00	395.55
1586.00	405.69
1587.00	412.71
1588.00	383.85
1589.00	386.19
1590.00	378.39
1591.00	426.76
1592.00	425.98
1593.00	415.84
1594.00	422.08
1595.00	410.37
1596.00	427.54
1597.00	399.45
1598.00	390.09
1599.00	395.55
1600.00	385.41
1601.00	398.67
1602.00	379.17
1603.00	372.15
1604.00	353.42
1605.00	352.64
1606.00	381.51
1607.00	402.57
1608.00	397.89
1609.00	393.99
1610.00	379.95
1611.00	380.73
1612.00	362.00
1613.00	360.44
1614.00	354.98
1615.00	344.84
1616.00	354.20
1617.00	353.42
1618.00	379.17
1619.00	398.67
1620.00	446.26
1621.00	440.02
1622.00	426.76
1623.00	395.55
1624.00	425.20
1625.00	385.41
1626.00	362.00
1627.00	337.04
1628.00	396.33
1629.00	407.25
1630.00	388.53
1631.00	367.46
1632.00	380.73
1633.00	402.57
1634.00	380.73
1635.00	378.39
1636.00	357.32
1637.00	390.87
1638.00	404.91
1639.00	419.74
1640.00	392.43
1641.00	379.95
1642.00	370.58
1643.00	380.73
1644.00	350.30
1645.00	357.32
1646.00	343.28
1647.00	362.00
1648.00	362.00
1649.00	376.05
1650.00	382.29
1651.00	399.45
1652.00	394.77
1653.00	374.49
1654.00	374.49
1655.00	404.91
1656.00	422.08
1657.00	428.32
1658.00	406.47
1659.00	414.27
1660.00	395.55
1661.00	397.11
1662.00	384.63
1663.00	407.25
1664.00	430.66
1665.00	433.78
1666.00	411.15
1667.00	391.65
1668.00	388.53
1669.00	402.57
1670.00	394.77
1671.00	428.32
1672.00	436.90
1673.00	435.34
1674.00	417.40
1675.00	384.63
1676.00	383.07
1677.00	390.09
1678.00	391.65
1679.00	401.01
1680.00	409.59
1681.00	401.79
1682.00	386.97
1683.00	379.17
1684.00	438.46
1685.00	614.78
1686.00	895.64
1687.00	1323.18
1688.00	1810.01
1689.00	2279.68
1690.00	2502.03
1691.00	2512.17
1692.00	2223.51
1693.00	1827.96
1694.00	1348.93
1695.00	997.85
1696.00	745.85
1697.00	640.53
1698.00	545.34
1699.00	520.38
1700.00	434.56
1701.00	408.03
1702.00	415.06
1703.00	431.44
1704.00	428.32
1705.00	410.37
1706.00	394.77
1707.00	397.89
1708.00	393.21
1709.00	408.03
1710.00	410.37
1711.00	401.79
1712.00	397.11
1713.00	393.99
1714.00	381.51
1715.00	390.09
1716.00	386.97
1717.00	429.10
1718.00	412.71
1719.00	425.20
1720.00	404.13
1721.00	408.03
1722.00	410.37
1723.00	404.13
1724.00	406.47
1725.00	397.11
1726.00	419.74
1727.00	421.30
1728.00	413.49
1729.00	381.51
1730.00	382.29
1731.00	384.63
1732.00	393.99
1733.00	367.46
1734.00	383.07
1735.00	397.11
1736.00	433.00
1737.00	424.42
1738.00	415.84
1739.00	390.09
1740.00	358.10
1741.00	345.62
1742.00	352.64
1743.00	379.17
1744.00	384.63
1745.00	392.43
1746.00	402.57
1747.00	414.27
1748.00	398.67
1749.00	382.29
1750.00	377.61
1751.00	397.89
1752.00	424.42
1753.00	436.90
1754.00	452.50
1755.00	420.52
1756.00	429.88
1757.00	372.15
1758.00	393.21
1759.00	369.02
1760.00	387.75
1761.00	347.96
1762.00	353.42
1763.00	365.90
1764.00	409.59
1765.00	392.43
1766.00	410.37
1767.00	399.45
1768.00	402.57
1769.00	371.36
1770.00	372.15
1771.00	384.63
1772.00	412.71
1773.00	392.43
1774.00	404.91
1775.00	411.15
1776.00	436.90
1777.00	424.42
1778.00	414.27
1779.00	400.23
1780.00	379.95
1781.00	356.54
1782.00	359.66
1783.00	379.95
1784.00	372.93
1785.00	375.27
1786.00	369.80
1787.00	393.99
1788.00	378.39
1789.00	399.45
1790.00	379.95
1791.00	415.84
1792.00	407.25
1793.00	416.62
1794.00	408.03
1795.00	386.97
1796.00	403.35
1797.00	382.29
1798.00	381.51
1799.00	357.32
1800.00	385.41
1801.00	388.53
1802.00	401.79
1803.00	384.63
1804.00	384.63
1805.00	385.41
1806.00	389.31
1807.00	385.41
1808.00	363.56
1809.00	353.42
1810.00	354.20
1811.00	384.63
1812.00	395.55
1813.00	389.31
1814.00	384.63
1815.00	340.16
1816.00	344.84
1817.00	331.58
1818.00	365.90
1819.00	393.99
1820.00	397.89
1821.00	383.07
1822.00	344.06
1823.00	363.56
1824.00	394.77
1825.00	411.15
1826.00	383.07
1827.00	362.78
1828.00	393.99
1829.00	414.27
1830.00	438.46
1831.00	397.11
1832.00	387.75
1833.00	356.54
1834.00	367.46
1835.00	359.66
1836.00	375.27
1837.00	369.80
1838.00	369.02
1839.00	352.64
1840.00	351.86
1841.00	372.15
1842.00	401.79
1843.00	400.23
1844.00	374.49
1845.00	357.32
1846.00	359.66
1847.00	386.19
1848.00	384.63
1849.00	393.21
1850.00	401.79
1851.00	395.55
1852.00	401.01
1853.00	352.64
1854.00	359.66
1855.00	369.80
1856.00	400.23
1857.00	397.89
1858.00	386.97
1859.00	411.93
1860.00	407.25
1861.00	418.18
1862.00	390.09
1863.00	401.79
1864.00	376.05
1865.00	394.77
1866.00	382.29
1867.00	385.41
1868.00	401.01
1869.00	397.89
1870.00	397.11
1871.00	382.29
1872.00	397.89
1873.00	386.19
1874.00	379.95
1875.00	382.29
1876.00	414.27
1877.00	422.08
1878.00	425.98
1879.00	401.79
1880.00	365.12
1881.00	347.18
1882.00	351.08
1883.00	355.76
1884.00	374.49
1885.00	374.49
1886.00	379.95
1887.00	377.61
1888.00	364.34
1889.00	360.44
1890.00	334.70
1891.00	342.50
1892.00	347.18
1893.00	346.40
1894.00	349.52
1895.00	354.20
1896.00	365.90
1897.00	374.49
1898.00	354.98
1899.00	377.61
1900.00	394.77
1901.00	425.98
1902.00	439.24
1903.00	425.98
1904.00	412.71
1905.00	393.21
1906.00	391.65
1907.00	365.90
1908.00	361.22
1909.00	356.54
1910.00	379.17
1911.00	397.11
1912.00	404.91
1913.00	419.74
1914.00	399.45
1915.00	404.13
1916.00	408.03
1917.00	424.42
1918.00	424.42
1919.00	430.66
1920.00	417.40
1921.00	392.43
1922.00	368.24
1923.00	368.24
1924.00	363.56
1925.00	361.22
1926.00	339.38
1927.00	379.95
1928.00	386.97
1929.00	394.77
1930.00	369.80
1931.00	355.76
1932.00	348.74
1933.00	367.46
1934.00	402.57
1935.00	424.42
1936.00	413.49
1937.00	404.91
1938.00	373.71
1939.00	374.49
1940.00	358.88
1941.00	364.34
1942.00	377.61
1943.00	378.39
1944.00	376.05
1945.00	365.12
1946.00	370.58
1947.00	379.95
1948.00	369.02
1949.00	360.44
1950.00	367.46
1951.00	377.61
1952.00	367.46
1953.00	381.51
1954.00	372.15
1955.00	392.43
1956.00	379.17
1957.00	363.56
1958.00	362.78
1959.00	376.83
1960.00	397.11
1961.00	372.93
1962.00	362.00
1963.00	367.46
1964.00	399.45
1965.00	397.89
1966.00	420.52
1967.00	422.86
1968.00	425.20
1969.00	399.45
1970.00	378.39
1971.00	376.83
1972.00	383.07
1973.00	414.27
1974.00	425.20
1975.00	405.69
1976.00	371.36
1977.00	358.10
1978.00	380.73
1979.00	390.09
1980.00	397.11
1981.00	386.19
1982.00	394.77
1983.00	399.45
1984.00	415.84
1985.00	404.91
1986.00	381.51
1987.00	369.02
1988.00	372.93
1989.00	404.13
1990.00	396.33
1991.00	405.69
1992.00	395.55
1993.00	398.67
1994.00	404.13
1995.00	382.29
1996.00	388.53
1997.00	403.35
1998.00	434.56
1999.00	447.04
2000.00	422.08
2001.00	415.84
2002.00	415.06
2003.00	414.27
2004.00	418.18
2005.00	388.53
2006.00	368.24
2007.00	350.30
2008.00	355.76
2009.00	393.99
2010.00	391.65
2011.00	419.74
2012.00	415.84
2013.00	422.08
2014.00	414.27
2015.00	400.23
2016.00	400.23
2017.00	363.56
2018.00	356.54
2019.00	362.78
2020.00	387.75
2021.00	412.71
2022.00	422.86
2023.00	432.22
2024.00	419.74
2025.00	393.21
2026.00	390.87
2027.00	339.38
2028.00	363.56
2029.00	343.28
2030.00	397.89
2031.00	369.02
2032.00	387.75
2033.00	378.39
2034.00	369.02
2035.00	354.98
2036.00	347.96
2037.00	391.65
2038.00	384.63
2039.00	391.65
2040.00	379.95
2041.00	376.05
2042.00	363.56
2043.00	335.48
2044.00	361.22
2045.00	382.29
2046.00	383.85
2047.00	325.33
>>>>>End Processed Spectral Data<<<<<
